participant,item,condition,slider.response,my_rs,total_residuals,unique_item_no,trials.thisN,session,half,literacy,age_textbox.text,gender_slider.response,difference
39,17,D_exp2,0.2962962962962963,0.472727272727273,89.16,68,0,62e3e2c63dde4a27a4c8309b,First,23,25,F,0.17643097643097672
39,12,C_exp2,0.14074074074074072,0.3875,93.21,47,1,62e3e2c63dde4a27a4c8309b,First,23,25,F,0.2467592592592593
39,15,C_exp2,0.23888888888888887,0.438636363636364,90.98,59,2,62e3e2c63dde4a27a4c8309b,First,23,25,F,0.19974747474747512
39,20,D_exp2,0.524074074074074,0.523863636363636,86.18,80,3,62e3e2c63dde4a27a4c8309b,First,23,25,F,-2.1043771043804949e-4
39,34,B_exp2,0.787962962962963,0.7625,65.09,134,4,62e3e2c63dde4a27a4c8309b,First,23,25,F,-0.02546296296296302
39,30,C_exp2,0.15370370370370373,0.694318181818182,72.45,119,5,62e3e2c63dde4a27a4c8309b,First,23,25,F,0.5406144781144782
39,44,B_exp2,0.9212962962962964,0.932954545454545,36.02,174,6,62e3e2c63dde4a27a4c8309b,First,23,25,F,0.011658249158248646
39,21,B_exp2,0.1925925925925926,0.540909090909091,85.06,82,7,62e3e2c63dde4a27a4c8309b,First,23,25,F,0.3483164983164984
39,1,B_exp2,0.07592592592592595,0.2,98.47,2,8,62e3e2c63dde4a27a4c8309b,First,23,25,F,0.12407407407407406
39,17,A_exp2,0.07037037037037036,0.472727272727273,89.16,65,9,62e3e2c63dde4a27a4c8309b,First,23,25,F,0.40235690235690263
39,36,C_exp2,0.02407407407407408,0.796590909090909,60.8,143,10,62e3e2c63dde4a27a4c8309b,First,23,25,F,0.772516835016835
39,15,D_exp2,0.3648148148148148,0.438636363636364,90.98,60,11,62e3e2c63dde4a27a4c8309b,First,23,25,F,0.07382154882154918
39,28,B_exp2,0.2675925925925926,0.660227272727273,75.63,110,12,62e3e2c63dde4a27a4c8309b,First,23,25,F,0.3926346801346804
39,17,C_exp2,0.05092592592592593,0.472727272727273,89.16,67,13,62e3e2c63dde4a27a4c8309b,First,23,25,F,0.42180134680134707
39,31,C_exp2,0.07222222222222224,0.711363636363636,70.76,123,14,62e3e2c63dde4a27a4c8309b,First,23,25,F,0.6391414141414138
39,22,C_exp2,0.0314814814814815,0.557954545454545,83.86,87,15,62e3e2c63dde4a27a4c8309b,First,23,25,F,0.5264730639730635
39,18,C_exp2,0.10555555555555556,0.489772727272727,88.21,71,16,62e3e2c63dde4a27a4c8309b,First,23,25,F,0.38421717171717146
39,43,C_exp2,0.6916666666666667,0.915909090909091,40.18,171,17,62e3e2c63dde4a27a4c8309b,First,23,25,F,0.22424242424242435
39,9,C_exp2,0.1962962962962963,0.336363636363636,95.17,35,18,62e3e2c63dde4a27a4c8309b,First,23,25,F,0.14006734006733967
39,19,B_exp2,0.30462962962962964,0.506818181818182,87.29,74,19,62e3e2c63dde4a27a4c8309b,First,23,25,F,0.2021885521885523
39,26,A_exp2,0.5722222222222222,0.626136363636364,78.63,101,20,62e3e2c63dde4a27a4c8309b,First,23,25,F,0.05391414141414186
39,3,A_exp2,0.08240740740740743,0.234090909090909,97.85,9,21,62e3e2c63dde4a27a4c8309b,First,23,25,F,0.15168350168350156
39,13,D_exp2,0.4685185185185185,0.404545454545455,92.49,52,22,62e3e2c63dde4a27a4c8309b,First,23,25,F,-0.06397306397306352
39,19,A_exp2,0.19814814814814813,0.506818181818182,87.29,73,23,62e3e2c63dde4a27a4c8309b,First,23,25,F,0.3086700336700338
39,21,A_exp2,0.18981481481481485,0.540909090909091,85.06,81,24,62e3e2c63dde4a27a4c8309b,First,23,25,F,0.3510942760942761
39,37,B_exp2,0.7962962962962963,0.813636363636363,58.43,146,25,62e3e2c63dde4a27a4c8309b,First,23,25,F,0.017340067340066767
39,41,D_exp2,0.9111111111111112,0.881818181818182,47.24,164,26,62e3e2c63dde4a27a4c8309b,First,23,25,F,-0.02929292929292926
39,38,D_exp2,0.7435185185185185,0.830681818181818,55.96,152,27,62e3e2c63dde4a27a4c8309b,First,23,25,F,0.0871632996632995
39,8,C_exp2,0.18333333333333335,0.319318181818182,95.69,31,28,62e3e2c63dde4a27a4c8309b,First,23,25,F,0.13598484848484865
39,32,C_exp2,0.23425925925925928,0.728409090909091,68.93,127,30,62e3e2c63dde4a27a4c8309b,First,23,25,F,0.49414983164983173
39,4,C_exp2,0.09259259259259262,0.251136363636364,97.45,15,31,62e3e2c63dde4a27a4c8309b,First,23,25,F,0.15854377104377138
39,6,D_exp2,0.2462962962962963,0.285227272727273,96.65,24,32,62e3e2c63dde4a27a4c8309b,First,23,25,F,0.038930976430976705
39,6,A_exp2,0.04907407407407405,0.285227272727273,96.65,21,33,62e3e2c63dde4a27a4c8309b,First,23,25,F,0.23615319865319895
39,41,A_exp2,0.700925925925926,0.881818181818182,47.24,161,35,62e3e2c63dde4a27a4c8309b,First,23,25,F,0.180892255892256
39,9,A_exp2,0.09259259259259262,0.336363636363636,95.17,33,36,62e3e2c63dde4a27a4c8309b,First,23,25,F,0.24377104377104336
39,14,D_exp2,0.312962962962963,0.421590909090909,91.77,56,37,62e3e2c63dde4a27a4c8309b,First,23,25,F,0.10862794612794602
39,30,A_exp2,0.5583333333333333,0.694318181818182,72.45,117,38,62e3e2c63dde4a27a4c8309b,First,23,25,F,0.1359848484848486
39,10,D_exp2,0.3037037037037037,0.353409090909091,94.56,40,39,62e3e2c63dde4a27a4c8309b,First,23,25,F,0.04970538720538731
39,25,B_exp2,0.5768518518518518,0.609090909090909,80.05,98,40,62e3e2c63dde4a27a4c8309b,First,23,25,F,0.03223905723905718
39,2,D_exp2,0.3388888888888889,0.217045454545455,98.2,8,41,62e3e2c63dde4a27a4c8309b,First,23,25,F,-0.12184343434343389
39,20,A_exp2,0.1564814814814815,0.523863636363636,86.18,77,42,62e3e2c63dde4a27a4c8309b,First,23,25,F,0.3673821548821545
39,2,C_exp2,0.21203703703703705,0.217045454545455,98.2,7,43,62e3e2c63dde4a27a4c8309b,First,23,25,F,0.005008417508417962
39,22,B_exp2,0.6490740740740741,0.557954545454545,83.86,86,44,62e3e2c63dde4a27a4c8309b,First,23,25,F,-0.0911195286195291
39,25,A_exp2,0.5916666666666667,0.609090909090909,80.05,97,45,62e3e2c63dde4a27a4c8309b,First,23,25,F,0.017424242424242342
39,33,C_exp2,0.7416666666666667,0.745454545454545,67.07,131,46,62e3e2c63dde4a27a4c8309b,First,23,25,F,0.0037878787878783404
39,8,A_exp2,0.137037037037037,0.319318181818182,95.69,29,47,62e3e2c63dde4a27a4c8309b,First,23,25,F,0.182281144781145
39,14,A_exp2,0.2277777777777778,0.421590909090909,91.77,53,48,62e3e2c63dde4a27a4c8309b,First,23,25,F,0.19381313131313122
39,7,D_exp2,0.3666666666666667,0.302272727272727,96.21,28,49,62e3e2c63dde4a27a4c8309b,First,23,25,F,-0.06439393939393967
39,35,B_exp2,0.7574074074074074,0.779545454545455,62.96,138,50,62e3e2c63dde4a27a4c8309b,First,23,25,F,0.022138047138047567
39,20,C_exp2,0.41388888888888886,0.523863636363636,86.18,79,51,62e3e2c63dde4a27a4c8309b,First,23,25,F,0.10997474747474711
39,13,A_exp2,0.04722222222222222,0.404545454545455,92.49,49,52,62e3e2c63dde4a27a4c8309b,First,23,25,F,0.35732323232323276
39,34,A_exp2,0.7388888888888889,0.7625,65.09,133,53,62e3e2c63dde4a27a4c8309b,First,23,25,F,0.023611111111111027
39,44,A_exp2,0.9833333333333334,0.932954545454545,36.02,173,54,62e3e2c63dde4a27a4c8309b,First,23,25,F,-0.050378787878788356
39,40,D_exp2,0.9175925925925924,0.864772727272727,50.34,160,55,62e3e2c63dde4a27a4c8309b,First,23,25,F,-0.05281986531986538
39,38,A_exp2,0.8555555555555556,0.830681818181818,55.96,149,56,62e3e2c63dde4a27a4c8309b,First,23,25,F,-0.02487373737373766
39,5,A_exp2,0.04166666666666668,0.268181818181818,97.09,17,57,62e3e2c63dde4a27a4c8309b,First,23,25,F,0.22651515151515134
39,33,D_exp2,0.6527777777777778,0.745454545454545,67.07,132,58,62e3e2c63dde4a27a4c8309b,First,23,25,F,0.09267676767676725
39,1,A_exp2,0.04629629629629628,0.2,98.47,1,59,62e3e2c63dde4a27a4c8309b,First,23,25,F,0.15370370370370373
39,18,A_exp2,0.01851851851851854,0.489772727272727,88.21,69,60,62e3e2c63dde4a27a4c8309b,First,23,25,F,0.4712542087542085
39,39,C_exp2,0.7185185185185186,0.847727272727273,53.22,155,61,62e3e2c63dde4a27a4c8309b,First,23,25,F,0.12920875420875444
39,3,D_exp2,0.18425925925925923,0.234090909090909,97.85,12,62,62e3e2c63dde4a27a4c8309b,First,23,25,F,0.049831649831649755
39,42,D_exp2,0.9472222222222222,0.898863636363636,43.85,168,63,62e3e2c63dde4a27a4c8309b,First,23,25,F,-0.04835858585858621
39,37,D_exp2,0.7925925925925925,0.813636363636363,58.43,148,64,62e3e2c63dde4a27a4c8309b,First,23,25,F,0.02104377104377053
39,11,C_exp2,0.05648148148148146,0.370454545454545,93.87,43,65,62e3e2c63dde4a27a4c8309b,First,23,25,F,0.3139730639730635
39,37,A_exp2,0.7731481481481481,0.813636363636363,58.43,145,66,62e3e2c63dde4a27a4c8309b,First,23,25,F,0.04048821548821491
39,26,B_exp2,0.3657407407407407,0.626136363636364,78.63,102,68,62e3e2c63dde4a27a4c8309b,First,23,25,F,0.26039562289562335
39,26,D_exp2,0.2685185185185185,0.626136363636364,78.63,104,69,62e3e2c63dde4a27a4c8309b,First,23,25,F,0.35761784511784556
39,33,B_exp2,0.7574074074074074,0.745454545454545,67.07,130,70,62e3e2c63dde4a27a4c8309b,First,23,25,F,-0.011952861952862381
39,11,A_exp2,0.02407407407407408,0.370454545454545,93.87,41,71,62e3e2c63dde4a27a4c8309b,First,23,25,F,0.3463804713804709
39,36,B_exp2,0.7537037037037038,0.796590909090909,60.8,142,72,62e3e2c63dde4a27a4c8309b,First,23,25,F,0.04288720538720525
39,10,A_exp2,0.12592592592592594,0.353409090909091,94.56,37,73,62e3e2c63dde4a27a4c8309b,First,23,25,F,0.22748316498316506
39,22,D_exp2,0.5555555555555556,0.557954545454545,83.86,88,74,62e3e2c63dde4a27a4c8309b,First,23,25,F,0.0023989898989894565
39,42,C_exp2,0.8805555555555555,0.898863636363636,43.85,167,75,62e3e2c63dde4a27a4c8309b,First,23,25,F,0.01830808080808044
39,38,B_exp2,0.8277777777777777,0.830681818181818,55.96,150,76,62e3e2c63dde4a27a4c8309b,First,23,25,F,0.0029040404040402423
39,29,C_exp2,0.5055555555555555,0.677272727272727,74.03,115,77,62e3e2c63dde4a27a4c8309b,First,23,25,F,0.1717171717171715
39,36,A_exp2,0.7472222222222222,0.796590909090909,60.8,141,78,62e3e2c63dde4a27a4c8309b,First,23,25,F,0.049368686868686784
39,20,B_exp2,0.3287037037037037,0.523863636363636,86.18,78,79,62e3e2c63dde4a27a4c8309b,First,23,25,F,0.19515993265993226
39,8,D_exp2,0.16296296296296298,0.319318181818182,95.69,32,80,62e3e2c63dde4a27a4c8309b,First,23,25,F,0.15635521885521902
39,31,D_exp2,0.712037037037037,0.711363636363636,70.76,124,81,62e3e2c63dde4a27a4c8309b,First,23,25,F,-6.734006734010478e-4
39,14,C_exp2,0.0222222222222222,0.421590909090909,91.77,55,82,62e3e2c63dde4a27a4c8309b,First,23,25,F,0.3993686868686868
39,23,B_exp2,0.24351851851851852,0.575,82.61,90,83,62e3e2c63dde4a27a4c8309b,First,23,25,F,0.33148148148148143
39,35,C_exp2,0.7305555555555556,0.779545454545455,62.96,139,84,62e3e2c63dde4a27a4c8309b,First,23,25,F,0.04898989898989936
39,27,C_exp2,0.575925925925926,0.643181818181818,77.13,107,85,62e3e2c63dde4a27a4c8309b,First,23,25,F,0.06725589225589201
39,10,C_exp2,0.07314814814814813,0.353409090909091,94.56,39,86,62e3e2c63dde4a27a4c8309b,First,23,25,F,0.2802609427609429
39,24,D_exp2,0.4888888888888889,0.592045454545455,81.33,96,87,62e3e2c63dde4a27a4c8309b,First,23,25,F,0.10315656565656611
39,23,C_exp2,0.23055555555555557,0.575,82.61,91,88,62e3e2c63dde4a27a4c8309b,First,23,25,F,0.3444444444444444
39,16,C_exp2,0.29907407407407405,0.455681818181818,90.06,63,89,62e3e2c63dde4a27a4c8309b,First,23,25,F,0.15660774410774397
39,21,C_exp2,0.26203703703703707,0.540909090909091,85.06,83,90,62e3e2c63dde4a27a4c8309b,First,23,25,F,0.27887205387205394
39,38,C_exp2,0.7953703703703704,0.830681818181818,55.96,151,91,62e3e2c63dde4a27a4c8309b,First,23,25,F,0.03531144781144757
39,9,B_exp2,0.14074074074074072,0.336363636363636,95.17,34,92,62e3e2c63dde4a27a4c8309b,First,23,25,F,0.19562289562289525
39,12,B_exp2,0.5037037037037037,0.3875,93.21,46,93,62e3e2c63dde4a27a4c8309b,Second,23,25,F,-0.11620370370370364
39,43,D_exp2,0.9712962962962964,0.915909090909091,40.18,172,94,62e3e2c63dde4a27a4c8309b,Second,23,25,F,-0.05538720538720543
39,27,B_exp2,0.28888888888888886,0.643181818181818,77.13,106,95,62e3e2c63dde4a27a4c8309b,Second,23,25,F,0.3542929292929291
39,5,D_exp2,0.6685185185185185,0.268181818181818,97.09,20,96,62e3e2c63dde4a27a4c8309b,Second,23,25,F,-0.4003367003367005
39,29,B_exp2,0.762962962962963,0.677272727272727,74.03,114,97,62e3e2c63dde4a27a4c8309b,Second,23,25,F,-0.08569023569023593
39,6,B_exp2,0.2324074074074074,0.285227272727273,96.65,22,98,62e3e2c63dde4a27a4c8309b,Second,23,25,F,0.0528198653198656
39,28,D_exp2,0.5157407407407407,0.660227272727273,75.63,112,99,62e3e2c63dde4a27a4c8309b,Second,23,25,F,0.14448653198653227
39,5,B_exp2,0.2444444444444445,0.268181818181818,97.09,18,100,62e3e2c63dde4a27a4c8309b,Second,23,25,F,0.02373737373737353
39,7,B_exp2,0.2796296296296296,0.302272727272727,96.21,26,101,62e3e2c63dde4a27a4c8309b,Second,23,25,F,0.02264309764309741
39,28,A_exp2,0.4962962962962963,0.660227272727273,75.63,109,102,62e3e2c63dde4a27a4c8309b,Second,23,25,F,0.1639309764309767
39,35,A_exp2,0.7388888888888889,0.779545454545455,62.96,137,103,62e3e2c63dde4a27a4c8309b,Second,23,25,F,0.04065656565656606
39,16,B_exp2,0.2462962962962963,0.455681818181818,90.06,62,104,62e3e2c63dde4a27a4c8309b,Second,23,25,F,0.20938552188552173
39,31,B_exp2,0.7194444444444444,0.711363636363636,70.76,122,105,62e3e2c63dde4a27a4c8309b,Second,23,25,F,-0.008080808080808466
39,6,C_exp2,0.2462962962962963,0.285227272727273,96.65,23,106,62e3e2c63dde4a27a4c8309b,Second,23,25,F,0.038930976430976705
39,41,C_exp2,0.9564814814814816,0.881818181818182,47.24,163,107,62e3e2c63dde4a27a4c8309b,Second,23,25,F,-0.07466329966329965
39,45,D_exp2,0.976851851851852,0.95,31.29,180,108,62e3e2c63dde4a27a4c8309b,Second,23,25,F,-0.026851851851852016
39,27,D_exp2,0.5101851851851852,0.643181818181818,77.13,108,109,62e3e2c63dde4a27a4c8309b,Second,23,25,F,0.13299663299663278
39,12,A_exp2,0.07500000000000001,0.3875,93.21,45,110,62e3e2c63dde4a27a4c8309b,Second,23,25,F,0.3125
39,30,B_exp2,0.7518518518518518,0.694318181818182,72.45,118,111,62e3e2c63dde4a27a4c8309b,Second,23,25,F,-0.057533670033669826
39,23,D_exp2,0.3657407407407407,0.575,82.61,92,112,62e3e2c63dde4a27a4c8309b,Second,23,25,F,0.20925925925925926
39,8,B_exp2,0.11666666666666664,0.319318181818182,95.69,30,113,62e3e2c63dde4a27a4c8309b,Second,23,25,F,0.20265151515151536
39,14,B_exp2,0.06666666666666665,0.421590909090909,91.77,54,114,62e3e2c63dde4a27a4c8309b,Second,23,25,F,0.35492424242424236
39,3,C_exp2,0.17407407407407405,0.234090909090909,97.85,11,116,62e3e2c63dde4a27a4c8309b,Second,23,25,F,0.06001683501683494
39,11,D_exp2,0.48703703703703705,0.370454545454545,93.87,44,117,62e3e2c63dde4a27a4c8309b,Second,23,25,F,-0.11658249158249206
39,2,B_exp2,0.2222222222222222,0.217045454545455,98.2,6,118,62e3e2c63dde4a27a4c8309b,Second,23,25,F,-0.005176767676767197
39,25,D_exp2,0.49166666666666664,0.609090909090909,80.05,100,119,62e3e2c63dde4a27a4c8309b,Second,23,25,F,0.11742424242424238
39,24,B_exp2,0.5194444444444445,0.592045454545455,81.33,94,120,62e3e2c63dde4a27a4c8309b,Second,23,25,F,0.0726010101010105
39,36,D_exp2,0.8407407407407408,0.796590909090909,60.8,144,121,62e3e2c63dde4a27a4c8309b,Second,23,25,F,-0.04414983164983177
39,5,C_exp2,0.03333333333333332,0.268181818181818,97.09,19,122,62e3e2c63dde4a27a4c8309b,Second,23,25,F,0.2348484848484847
39,23,A_exp2,0.4898148148148148,0.575,82.61,89,123,62e3e2c63dde4a27a4c8309b,Second,23,25,F,0.08518518518518514
39,7,A_exp2,0.03333333333333332,0.302272727272727,96.21,25,124,62e3e2c63dde4a27a4c8309b,Second,23,25,F,0.2689393939393937
39,32,D_exp2,0.7962962962962963,0.728409090909091,68.93,128,125,62e3e2c63dde4a27a4c8309b,Second,23,25,F,-0.06788720538720527
39,42,A_exp2,0.9601851851851853,0.898863636363636,43.85,165,126,62e3e2c63dde4a27a4c8309b,Second,23,25,F,-0.06132154882154928
39,24,C_exp2,0.13611111111111113,0.592045454545455,81.33,95,127,62e3e2c63dde4a27a4c8309b,Second,23,25,F,0.45593434343434386
39,39,D_exp2,0.8509259259259259,0.847727272727273,53.22,156,128,62e3e2c63dde4a27a4c8309b,Second,23,25,F,-0.0031986531986528677
39,34,C_exp2,0.7037037037037037,0.7625,65.09,135,129,62e3e2c63dde4a27a4c8309b,Second,23,25,F,0.058796296296296235
39,13,C_exp2,0.09629629629629628,0.404545454545455,92.49,51,130,62e3e2c63dde4a27a4c8309b,Second,23,25,F,0.3082491582491587
39,45,A_exp2,1,0.95,31.29,177,131,62e3e2c63dde4a27a4c8309b,Second,23,25,F,-0.050000000000000044
39,29,A_exp2,0.6435185185185185,0.677272727272727,74.03,113,132,62e3e2c63dde4a27a4c8309b,Second,23,25,F,0.03375420875420854
39,44,C_exp2,0.9407407407407408,0.932954545454545,36.02,175,133,62e3e2c63dde4a27a4c8309b,Second,23,25,F,-0.0077861952861957295
39,21,D_exp2,0.5064814814814815,0.540909090909091,85.06,84,134,62e3e2c63dde4a27a4c8309b,Second,23,25,F,0.034427609427609474
39,1,D_exp2,0.2,0.2,98.47,4,135,62e3e2c63dde4a27a4c8309b,Second,23,25,F,0
39,32,B_exp2,0.6305555555555555,0.728409090909091,68.93,126,136,62e3e2c63dde4a27a4c8309b,Second,23,25,F,0.09785353535353547
39,42,B_exp2,0.9064814814814814,0.898863636363636,43.85,166,137,62e3e2c63dde4a27a4c8309b,Second,23,25,F,-0.007617845117845468
39,40,C_exp2,0.7101851851851853,0.864772727272727,50.34,159,138,62e3e2c63dde4a27a4c8309b,Second,23,25,F,0.15458754208754177
39,1,C_exp2,0.18518518518518515,0.2,98.47,3,139,62e3e2c63dde4a27a4c8309b,Second,23,25,F,0.014814814814814864
39,16,A_exp2,0.26944444444444443,0.455681818181818,90.06,61,140,62e3e2c63dde4a27a4c8309b,Second,23,25,F,0.1862373737373736
39,43,B_exp2,0.9388888888888888,0.915909090909091,40.18,170,142,62e3e2c63dde4a27a4c8309b,Second,23,25,F,-0.022979797979797767
39,30,D_exp2,0.549074074074074,0.694318181818182,72.45,120,143,62e3e2c63dde4a27a4c8309b,Second,23,25,F,0.1452441077441079
39,44,D_exp2,0.9824074074074074,0.932954545454545,36.02,176,144,62e3e2c63dde4a27a4c8309b,Second,23,25,F,-0.04945286195286236
39,35,D_exp2,0.7351851851851852,0.779545454545455,62.96,140,145,62e3e2c63dde4a27a4c8309b,Second,23,25,F,0.04436026936026982
39,31,A_exp2,0.6092592592592593,0.711363636363636,70.76,121,146,62e3e2c63dde4a27a4c8309b,Second,23,25,F,0.1021043771043767
39,9,D_exp2,0.30833333333333335,0.336363636363636,95.17,36,147,62e3e2c63dde4a27a4c8309b,Second,23,25,F,0.028030303030302628
39,29,D_exp2,0.49722222222222223,0.677272727272727,74.03,116,148,62e3e2c63dde4a27a4c8309b,Second,23,25,F,0.1800505050505048
39,22,A_exp2,0.4453703703703704,0.557954545454545,83.86,85,149,62e3e2c63dde4a27a4c8309b,Second,23,25,F,0.11258417508417462
39,18,B_exp2,0.26203703703703707,0.489772727272727,88.21,70,150,62e3e2c63dde4a27a4c8309b,Second,23,25,F,0.22773569023568996
39,10,B_exp2,0.1472222222222222,0.353409090909091,94.56,38,151,62e3e2c63dde4a27a4c8309b,Second,23,25,F,0.2061868686868688
39,11,B_exp2,0.0314814814814815,0.370454545454545,93.87,42,152,62e3e2c63dde4a27a4c8309b,Second,23,25,F,0.3389730639730635
39,4,A_exp2,0.0259259259259259,0.251136363636364,97.45,13,153,62e3e2c63dde4a27a4c8309b,Second,23,25,F,0.22521043771043808
39,45,C_exp2,1,0.95,31.29,179,154,62e3e2c63dde4a27a4c8309b,Second,23,25,F,-0.050000000000000044
39,12,D_exp2,0.11203703703703705,0.3875,93.21,48,155,62e3e2c63dde4a27a4c8309b,Second,23,25,F,0.27546296296296297
39,13,B_exp2,0.00925925925925924,0.404545454545455,92.49,50,156,62e3e2c63dde4a27a4c8309b,Second,23,25,F,0.39528619528619574
39,4,B_exp2,0.137037037037037,0.251136363636364,97.45,14,157,62e3e2c63dde4a27a4c8309b,Second,23,25,F,0.11409932659932698
39,7,C_exp2,0.01296296296296295,0.302272727272727,96.21,27,158,62e3e2c63dde4a27a4c8309b,Second,23,25,F,0.2893097643097641
39,4,D_exp2,0.15185185185185185,0.251136363636364,97.45,16,159,62e3e2c63dde4a27a4c8309b,Second,23,25,F,0.09928451178451214
39,40,A_exp2,0.8212962962962963,0.864772727272727,50.34,157,160,62e3e2c63dde4a27a4c8309b,Second,23,25,F,0.043476430976430724
39,16,D_exp2,0.19166666666666665,0.455681818181818,90.06,64,161,62e3e2c63dde4a27a4c8309b,Second,23,25,F,0.26401515151515137
39,40,B_exp2,0.825925925925926,0.864772727272727,50.34,158,162,62e3e2c63dde4a27a4c8309b,Second,23,25,F,0.038846801346801074
39,39,A_exp2,0.887962962962963,0.847727272727273,53.22,153,163,62e3e2c63dde4a27a4c8309b,Second,23,25,F,-0.04023569023568996
39,2,A_exp2,0.03240740740740738,0.217045454545455,98.2,5,164,62e3e2c63dde4a27a4c8309b,Second,23,25,F,0.18463804713804763
39,26,C_exp2,0.13981481481481484,0.626136363636364,78.63,103,165,62e3e2c63dde4a27a4c8309b,Second,23,25,F,0.4863215488215492
39,15,A_exp2,0.04074074074074074,0.438636363636364,90.98,57,166,62e3e2c63dde4a27a4c8309b,Second,23,25,F,0.39789562289562325
39,34,D_exp2,0.6212962962962962,0.7625,65.09,136,167,62e3e2c63dde4a27a4c8309b,Second,23,25,F,0.14120370370370372
39,45,B_exp2,0.9851851851851852,0.95,31.29,178,168,62e3e2c63dde4a27a4c8309b,Second,23,25,F,-0.03518518518518521
39,17,B_exp2,0.21203703703703705,0.472727272727273,89.16,66,170,62e3e2c63dde4a27a4c8309b,Second,23,25,F,0.26069023569023597
39,25,C_exp2,0.4425925925925926,0.609090909090909,80.05,99,171,62e3e2c63dde4a27a4c8309b,Second,23,25,F,0.16649831649831642
39,18,D_exp2,0.27314814814814814,0.489772727272727,88.21,72,172,62e3e2c63dde4a27a4c8309b,Second,23,25,F,0.2166245791245789
39,24,A_exp2,0.5268518518518519,0.592045454545455,81.33,93,173,62e3e2c63dde4a27a4c8309b,Second,23,25,F,0.06519360269360308
39,28,C_exp2,0.4685185185185185,0.660227272727273,75.63,111,174,62e3e2c63dde4a27a4c8309b,Second,23,25,F,0.1917087542087545
39,33,A_exp2,0.6157407407407407,0.745454545454545,67.07,129,175,62e3e2c63dde4a27a4c8309b,Second,23,25,F,0.12971380471380434
39,37,C_exp2,0.7546296296296297,0.813636363636363,58.43,147,176,62e3e2c63dde4a27a4c8309b,Second,23,25,F,0.0590067340067334
39,19,C_exp2,0.2833333333333333,0.506818181818182,87.29,75,177,62e3e2c63dde4a27a4c8309b,Second,23,25,F,0.22348484848484862
39,27,A_exp2,0.5222222222222223,0.643181818181818,77.13,105,178,62e3e2c63dde4a27a4c8309b,Second,23,25,F,0.12095959595959571
39,15,B_exp2,0.30833333333333335,0.438636363636364,90.98,58,179,62e3e2c63dde4a27a4c8309b,Second,23,25,F,0.13030303030303064
39,32,A_exp2,0.7842592592592592,0.728409090909091,68.93,125,180,62e3e2c63dde4a27a4c8309b,Second,23,25,F,-0.055850168350168206
39,19,D_exp2,0.2796296296296296,0.506818181818182,87.29,76,181,62e3e2c63dde4a27a4c8309b,Second,23,25,F,0.22718855218855233
39,39,B_exp2,0.8490740740740741,0.847727272727273,53.22,154,182,62e3e2c63dde4a27a4c8309b,Second,23,25,F,-0.0013468013468010964
39,41,B_exp2,0.8814814814814815,0.881818181818182,47.24,162,183,62e3e2c63dde4a27a4c8309b,Second,23,25,F,3.367003367004129e-4
39,3,B_exp2,0.15462962962962962,0.234090909090909,97.85,10,184,62e3e2c63dde4a27a4c8309b,Second,23,25,F,0.07946127946127937
39,43,A_exp2,0.950925925925926,0.915909090909091,40.18,169,185,62e3e2c63dde4a27a4c8309b,Second,23,25,F,-0.035016835016834946
92,26,B_exp2,0.17129629629629628,0.626136363636364,78.63,102,0,62e3e279a59d6dea46d86b42,First,23,21,M,0.45484006734006777
92,32,D_exp2,0.237962962962963,0.728409090909091,68.93,128,1,62e3e279a59d6dea46d86b42,First,23,21,M,0.490446127946128
92,11,D_exp2,0.10555555555555556,0.370454545454545,93.87,44,2,62e3e279a59d6dea46d86b42,First,23,21,M,0.2648989898989894
92,23,D_exp2,0.15462962962962962,0.575,82.61,92,3,62e3e279a59d6dea46d86b42,First,23,21,M,0.42037037037037034
92,5,C_exp2,0.08148148148148149,0.268181818181818,97.09,19,4,62e3e279a59d6dea46d86b42,First,23,21,M,0.18670033670033653
92,37,D_exp2,0.7481481481481481,0.813636363636363,58.43,148,5,62e3e279a59d6dea46d86b42,First,23,21,M,0.06548821548821493
92,21,D_exp2,0.24351851851851852,0.540909090909091,85.06,84,6,62e3e279a59d6dea46d86b42,First,23,21,M,0.2973905723905725
92,40,B_exp2,0.8861111111111111,0.864772727272727,50.34,158,7,62e3e279a59d6dea46d86b42,First,23,21,M,-0.021338383838384045
92,5,A_exp2,0.0851851851851852,0.268181818181818,97.09,17,8,62e3e279a59d6dea46d86b42,First,23,21,M,0.18299663299663282
92,12,D_exp2,0.1111111111111111,0.3875,93.21,48,9,62e3e279a59d6dea46d86b42,First,23,21,M,0.2763888888888889
92,45,D_exp2,0.9833333333333334,0.95,31.29,180,10,62e3e279a59d6dea46d86b42,First,23,21,M,-0.03333333333333344
92,40,D_exp2,0.75,0.864772727272727,50.34,160,11,62e3e279a59d6dea46d86b42,First,23,21,M,0.11477272727272703
92,15,B_exp2,0.12962962962962965,0.438636363636364,90.98,58,12,62e3e279a59d6dea46d86b42,First,23,21,M,0.30900673400673434
92,1,B_exp2,0.06388888888888888,0.2,98.47,2,14,62e3e279a59d6dea46d86b42,First,23,21,M,0.13611111111111113
92,14,C_exp2,0.06018518518518517,0.421590909090909,91.77,55,15,62e3e279a59d6dea46d86b42,First,23,21,M,0.36140572390572384
92,33,B_exp2,0.35,0.745454545454545,67.07,130,16,62e3e279a59d6dea46d86b42,First,23,21,M,0.39545454545454506
92,19,B_exp2,0.20092592592592595,0.506818181818182,87.29,74,17,62e3e279a59d6dea46d86b42,First,23,21,M,0.305892255892256
92,20,B_exp2,0.14074074074074072,0.523863636363636,86.18,78,18,62e3e279a59d6dea46d86b42,First,23,21,M,0.38312289562289525
92,20,C_exp2,0.14444444444444443,0.523863636363636,86.18,79,19,62e3e279a59d6dea46d86b42,First,23,21,M,0.37941919191919155
92,15,D_exp2,0.14074074074074072,0.438636363636364,90.98,60,20,62e3e279a59d6dea46d86b42,First,23,21,M,0.29789562289562327
92,39,C_exp2,0.4583333333333333,0.847727272727273,53.22,155,21,62e3e279a59d6dea46d86b42,First,23,21,M,0.3893939393939397
92,38,A_exp2,0.7212962962962963,0.830681818181818,55.96,149,22,62e3e279a59d6dea46d86b42,First,23,21,M,0.10938552188552164
92,34,A_exp2,0.6712962962962963,0.7625,65.09,133,23,62e3e279a59d6dea46d86b42,First,23,21,M,0.09120370370370368
92,23,C_exp2,0.15370370370370373,0.575,82.61,91,25,62e3e279a59d6dea46d86b42,First,23,21,M,0.4212962962962962
92,10,A_exp2,0.09166666666666667,0.353409090909091,94.56,37,26,62e3e279a59d6dea46d86b42,First,23,21,M,0.26174242424242433
92,4,D_exp2,0.08055555555555555,0.251136363636364,97.45,16,27,62e3e279a59d6dea46d86b42,First,23,21,M,0.17058080808080844
92,44,C_exp2,0.8814814814814815,0.932954545454545,36.02,175,28,62e3e279a59d6dea46d86b42,First,23,21,M,0.051473063973063504
92,13,C_exp2,0.11759259259259258,0.404545454545455,92.49,51,29,62e3e279a59d6dea46d86b42,First,23,21,M,0.2869528619528624
92,22,C_exp2,0.27222222222222225,0.557954545454545,83.86,87,30,62e3e279a59d6dea46d86b42,First,23,21,M,0.2857323232323228
92,42,D_exp2,0.7583333333333333,0.898863636363636,43.85,168,31,62e3e279a59d6dea46d86b42,First,23,21,M,0.14053030303030267
92,1,A_exp2,0.07500000000000001,0.2,98.47,1,32,62e3e279a59d6dea46d86b42,First,23,21,M,0.125
92,13,A_exp2,0.13425925925925924,0.404545454545455,92.49,49,33,62e3e279a59d6dea46d86b42,First,23,21,M,0.27028619528619574
92,24,A_exp2,0.24722222222222223,0.592045454545455,81.33,93,34,62e3e279a59d6dea46d86b42,First,23,21,M,0.34482323232323275
92,27,A_exp2,0.3416666666666667,0.643181818181818,77.13,105,35,62e3e279a59d6dea46d86b42,First,23,21,M,0.3015151515151513
92,34,D_exp2,0.5611111111111111,0.7625,65.09,136,36,62e3e279a59d6dea46d86b42,First,23,21,M,0.20138888888888884
92,1,C_exp2,0.11851851851851852,0.2,98.47,3,37,62e3e279a59d6dea46d86b42,First,23,21,M,0.08148148148148149
92,26,C_exp2,0.2962962962962963,0.626136363636364,78.63,103,38,62e3e279a59d6dea46d86b42,First,23,21,M,0.32984006734006777
92,29,D_exp2,0.4407407407407408,0.677272727272727,74.03,116,39,62e3e279a59d6dea46d86b42,First,23,21,M,0.2365319865319862
92,7,B_exp2,0.37222222222222223,0.302272727272727,96.21,26,40,62e3e279a59d6dea46d86b42,First,23,21,M,-0.0699494949494952
92,36,D_exp2,0.6222222222222222,0.796590909090909,60.8,144,41,62e3e279a59d6dea46d86b42,First,23,21,M,0.17436868686868678
92,37,B_exp2,0.7185185185185186,0.813636363636363,58.43,146,42,62e3e279a59d6dea46d86b42,First,23,21,M,0.09511784511784449
92,2,B_exp2,0.2796296296296296,0.217045454545455,98.2,6,43,62e3e279a59d6dea46d86b42,First,23,21,M,-0.0625841750841746
92,42,A_exp2,0.8712962962962962,0.898863636363636,43.85,165,44,62e3e279a59d6dea46d86b42,First,23,21,M,0.02756734006733974
92,38,B_exp2,0.7083333333333334,0.830681818181818,55.96,150,45,62e3e279a59d6dea46d86b42,First,23,21,M,0.1223484848484846
92,4,C_exp2,0.02314814814814814,0.251136363636364,97.45,15,46,62e3e279a59d6dea46d86b42,First,23,21,M,0.22798821548821585
92,22,D_exp2,0.137037037037037,0.557954545454545,83.86,88,47,62e3e279a59d6dea46d86b42,First,23,21,M,0.420917508417508
92,26,A_exp2,0.12222222222222225,0.626136363636364,78.63,101,48,62e3e279a59d6dea46d86b42,First,23,21,M,0.5039141414141418
92,28,A_exp2,0.25277777777777777,0.660227272727273,75.63,109,49,62e3e279a59d6dea46d86b42,First,23,21,M,0.40744949494949523
92,28,C_exp2,0.13055555555555554,0.660227272727273,75.63,111,50,62e3e279a59d6dea46d86b42,First,23,21,M,0.5296717171717175
92,41,B_exp2,0.7574074074074074,0.881818181818182,47.24,162,51,62e3e279a59d6dea46d86b42,First,23,21,M,0.12441077441077453
92,3,C_exp2,0.137037037037037,0.234090909090909,97.85,11,52,62e3e279a59d6dea46d86b42,First,23,21,M,0.09705387205387198
92,31,A_exp2,0.6638888888888889,0.711363636363636,70.76,121,53,62e3e279a59d6dea46d86b42,First,23,21,M,0.047474747474747114
92,43,B_exp2,0.8925925925925926,0.915909090909091,40.18,170,54,62e3e279a59d6dea46d86b42,First,23,21,M,0.023316498316498402
92,8,C_exp2,0.0537037037037037,0.319318181818182,95.69,31,55,62e3e279a59d6dea46d86b42,First,23,21,M,0.2656144781144783
92,15,A_exp2,0.01851851851851854,0.438636363636364,90.98,57,56,62e3e279a59d6dea46d86b42,First,23,21,M,0.42011784511784545
92,42,B_exp2,0.8074074074074074,0.898863636363636,43.85,166,57,62e3e279a59d6dea46d86b42,First,23,21,M,0.09145622895622862
92,31,D_exp2,0.07685185185185184,0.711363636363636,70.76,124,58,62e3e279a59d6dea46d86b42,First,23,21,M,0.6345117845117841
92,22,B_exp2,0.06666666666666665,0.557954545454545,83.86,86,59,62e3e279a59d6dea46d86b42,First,23,21,M,0.4912878787878784
92,37,C_exp2,0.3,0.813636363636363,58.43,147,60,62e3e279a59d6dea46d86b42,First,23,21,M,0.513636363636363
92,16,C_exp2,0.03796296296296297,0.455681818181818,90.06,63,61,62e3e279a59d6dea46d86b42,First,23,21,M,0.41771885521885505
92,17,C_exp2,0.06111111111111111,0.472727272727273,89.16,67,62,62e3e279a59d6dea46d86b42,First,23,21,M,0.4116161616161619
92,3,D_exp2,0.07777777777777778,0.234090909090909,97.85,12,63,62e3e279a59d6dea46d86b42,First,23,21,M,0.1563131313131312
92,33,A_exp2,0.43148148148148147,0.745454545454545,67.07,129,64,62e3e279a59d6dea46d86b42,First,23,21,M,0.31397306397306357
92,8,B_exp2,0.0398148148148148,0.319318181818182,95.69,30,65,62e3e279a59d6dea46d86b42,First,23,21,M,0.2795033670033672
92,21,C_exp2,0.09444444444444444,0.540909090909091,85.06,83,66,62e3e279a59d6dea46d86b42,First,23,21,M,0.44646464646464656
92,10,B_exp2,0.21666666666666667,0.353409090909091,94.56,38,67,62e3e279a59d6dea46d86b42,First,23,21,M,0.13674242424242433
92,27,B_exp2,0.2583333333333333,0.643181818181818,77.13,106,68,62e3e279a59d6dea46d86b42,First,23,21,M,0.38484848484848466
92,31,C_exp2,0.33425925925925926,0.711363636363636,70.76,123,69,62e3e279a59d6dea46d86b42,First,23,21,M,0.3771043771043767
92,40,C_exp2,0.7574074074074074,0.864772727272727,50.34,159,70,62e3e279a59d6dea46d86b42,First,23,21,M,0.10736531986531961
92,24,B_exp2,0.15185185185185185,0.592045454545455,81.33,94,71,62e3e279a59d6dea46d86b42,First,23,21,M,0.44019360269360314
92,25,D_exp2,0.35555555555555557,0.609090909090909,80.05,100,72,62e3e279a59d6dea46d86b42,First,23,21,M,0.25353535353535345
92,35,D_exp2,0.6129629629629629,0.779545454545455,62.96,140,73,62e3e279a59d6dea46d86b42,First,23,21,M,0.16658249158249205
92,6,A_exp2,0,0.285227272727273,96.65,21,74,62e3e279a59d6dea46d86b42,First,23,21,M,0.285227272727273
92,29,C_exp2,0.30648148148148147,0.677272727272727,74.03,115,75,62e3e279a59d6dea46d86b42,First,23,21,M,0.37079124579124556
92,27,D_exp2,0.23148148148148143,0.643181818181818,77.13,108,76,62e3e279a59d6dea46d86b42,First,23,21,M,0.41170033670033657
92,18,A_exp2,0.14444444444444443,0.489772727272727,88.21,69,77,62e3e279a59d6dea46d86b42,First,23,21,M,0.3453282828282826
92,6,B_exp2,0.08611111111111114,0.285227272727273,96.65,22,78,62e3e279a59d6dea46d86b42,First,23,21,M,0.19911616161616186
92,19,D_exp2,0.3731481481481481,0.506818181818182,87.29,76,79,62e3e279a59d6dea46d86b42,First,23,21,M,0.13367003367003383
92,10,D_exp2,0.13611111111111113,0.353409090909091,94.56,40,80,62e3e279a59d6dea46d86b42,First,23,21,M,0.21729797979797988
92,20,D_exp2,0.2185185185185185,0.523863636363636,86.18,80,81,62e3e279a59d6dea46d86b42,First,23,21,M,0.3053451178451175
92,3,A_exp2,0,0.234090909090909,97.85,9,82,62e3e279a59d6dea46d86b42,First,23,21,M,0.234090909090909
92,28,D_exp2,0.4407407407407408,0.660227272727273,75.63,112,83,62e3e279a59d6dea46d86b42,First,23,21,M,0.21948653198653217
92,40,A_exp2,0.8583333333333334,0.864772727272727,50.34,157,84,62e3e279a59d6dea46d86b42,First,23,21,M,0.006439393939393634
92,39,A_exp2,0.7240740740740741,0.847727272727273,53.22,153,85,62e3e279a59d6dea46d86b42,First,23,21,M,0.1236531986531989
92,6,C_exp2,0.07407407407407407,0.285227272727273,96.65,23,86,62e3e279a59d6dea46d86b42,First,23,21,M,0.21115319865319893
92,12,A_exp2,0.09166666666666667,0.3875,93.21,45,87,62e3e279a59d6dea46d86b42,First,23,21,M,0.29583333333333334
92,13,D_exp2,0.11666666666666664,0.404545454545455,92.49,52,88,62e3e279a59d6dea46d86b42,First,23,21,M,0.28787878787878834
92,30,D_exp2,0.4814814814814815,0.694318181818182,72.45,120,89,62e3e279a59d6dea46d86b42,First,23,21,M,0.21283670033670044
92,45,C_exp2,0.900925925925926,0.95,31.29,179,90,62e3e279a59d6dea46d86b42,First,23,21,M,0.04907407407407394
92,9,C_exp2,0.01851851851851854,0.336363636363636,95.17,35,91,62e3e279a59d6dea46d86b42,First,23,21,M,0.31784511784511743
92,25,A_exp2,0.3740740740740741,0.609090909090909,80.05,97,92,62e3e279a59d6dea46d86b42,First,23,21,M,0.2350168350168349
92,33,C_exp2,0.5935185185185186,0.745454545454545,67.07,131,93,62e3e279a59d6dea46d86b42,Second,23,21,M,0.15193602693602648
92,16,A_exp2,0.1425925925925926,0.455681818181818,90.06,61,94,62e3e279a59d6dea46d86b42,Second,23,21,M,0.3130892255892254
92,9,B_exp2,0.18981481481481485,0.336363636363636,95.17,34,95,62e3e279a59d6dea46d86b42,Second,23,21,M,0.14654882154882112
92,45,B_exp2,0.9555555555555556,0.95,31.29,178,96,62e3e279a59d6dea46d86b42,Second,23,21,M,-0.005555555555555647
92,25,B_exp2,0.39166666666666666,0.609090909090909,80.05,98,97,62e3e279a59d6dea46d86b42,Second,23,21,M,0.21742424242424235
92,35,C_exp2,0.4361111111111111,0.779545454545455,62.96,139,98,62e3e279a59d6dea46d86b42,Second,23,21,M,0.34343434343434387
92,29,A_exp2,0.2398148148148148,0.677272727272727,74.03,113,99,62e3e279a59d6dea46d86b42,Second,23,21,M,0.4374579124579122
92,43,C_exp2,0.7342592592592593,0.915909090909091,40.18,171,100,62e3e279a59d6dea46d86b42,Second,23,21,M,0.18164983164983173
92,35,A_exp2,0.6111111111111112,0.779545454545455,62.96,137,101,62e3e279a59d6dea46d86b42,Second,23,21,M,0.16843434343434383
92,35,B_exp2,0.37777777777777777,0.779545454545455,62.96,138,102,62e3e279a59d6dea46d86b42,Second,23,21,M,0.4017676767676772
92,17,D_exp2,0.23148148148148143,0.472727272727273,89.16,68,103,62e3e279a59d6dea46d86b42,Second,23,21,M,0.24124579124579157
92,44,D_exp2,0.7703703703703704,0.932954545454545,36.02,176,104,62e3e279a59d6dea46d86b42,Second,23,21,M,0.16258417508417466
92,36,A_exp2,0.26481481481481484,0.796590909090909,60.8,141,105,62e3e279a59d6dea46d86b42,Second,23,21,M,0.5317760942760942
92,8,D_exp2,0.10370370370370369,0.319318181818182,95.69,32,106,62e3e279a59d6dea46d86b42,Second,23,21,M,0.21561447811447831
92,39,D_exp2,0.6842592592592592,0.847727272727273,53.22,156,107,62e3e279a59d6dea46d86b42,Second,23,21,M,0.16346801346801376
92,17,B_exp2,0.2148148148148148,0.472727272727273,89.16,66,108,62e3e279a59d6dea46d86b42,Second,23,21,M,0.2579124579124582
92,22,A_exp2,0.23888888888888887,0.557954545454545,83.86,85,109,62e3e279a59d6dea46d86b42,Second,23,21,M,0.31906565656565616
92,41,D_exp2,0.6564814814814814,0.881818181818182,47.24,164,110,62e3e279a59d6dea46d86b42,Second,23,21,M,0.2253367003367005
92,9,D_exp2,0.15833333333333333,0.336363636363636,95.17,36,111,62e3e279a59d6dea46d86b42,Second,23,21,M,0.17803030303030265
92,34,C_exp2,0.3944444444444444,0.7625,65.09,135,112,62e3e279a59d6dea46d86b42,Second,23,21,M,0.3680555555555556
92,2,A_exp2,0.05740740740740741,0.217045454545455,98.2,5,113,62e3e279a59d6dea46d86b42,Second,23,21,M,0.1596380471380476
92,41,C_exp2,0.7796296296296297,0.881818181818182,47.24,163,114,62e3e279a59d6dea46d86b42,Second,23,21,M,0.10218855218855227
92,32,B_exp2,0.1805555555555556,0.728409090909091,68.93,126,115,62e3e279a59d6dea46d86b42,Second,23,21,M,0.5478535353535354
92,20,A_exp2,0.34351851851851856,0.523863636363636,86.18,77,116,62e3e279a59d6dea46d86b42,Second,23,21,M,0.18034511784511742
92,23,B_exp2,0.45925925925925926,0.575,82.61,90,117,62e3e279a59d6dea46d86b42,Second,23,21,M,0.1157407407407407
92,29,B_exp2,0.24166666666666664,0.677272727272727,74.03,114,118,62e3e279a59d6dea46d86b42,Second,23,21,M,0.4356060606060604
92,10,C_exp2,0.17777777777777776,0.353409090909091,94.56,39,119,62e3e279a59d6dea46d86b42,Second,23,21,M,0.17563131313131325
92,38,C_exp2,0.6416666666666666,0.830681818181818,55.96,151,120,62e3e279a59d6dea46d86b42,Second,23,21,M,0.18901515151515136
92,18,C_exp2,0.32407407407407407,0.489772727272727,88.21,71,121,62e3e279a59d6dea46d86b42,Second,23,21,M,0.16569865319865296
92,13,B_exp2,0.29444444444444445,0.404545454545455,92.49,50,122,62e3e279a59d6dea46d86b42,Second,23,21,M,0.11010101010101053
92,12,C_exp2,0.15462962962962962,0.3875,93.21,47,123,62e3e279a59d6dea46d86b42,Second,23,21,M,0.2328703703703704
92,44,A_exp2,0.8592592592592593,0.932954545454545,36.02,173,124,62e3e279a59d6dea46d86b42,Second,23,21,M,0.07369528619528576
92,28,B_exp2,0.5212962962962963,0.660227272727273,75.63,110,125,62e3e279a59d6dea46d86b42,Second,23,21,M,0.13893097643097674
92,23,A_exp2,0.22685185185185183,0.575,82.61,89,126,62e3e279a59d6dea46d86b42,Second,23,21,M,0.3481481481481481
92,6,D_exp2,0.18981481481481485,0.285227272727273,96.65,24,127,62e3e279a59d6dea46d86b42,Second,23,21,M,0.09541245791245814
92,11,B_exp2,0.4046296296296296,0.370454545454545,93.87,42,128,62e3e279a59d6dea46d86b42,Second,23,21,M,-0.034175084175084636
92,1,D_exp2,0.5064814814814815,0.2,98.47,4,129,62e3e279a59d6dea46d86b42,Second,23,21,M,-0.3064814814814815
92,14,B_exp2,0.6490740740740741,0.421590909090909,91.77,54,131,62e3e279a59d6dea46d86b42,Second,23,21,M,-0.22748316498316512
92,43,D_exp2,0.8416666666666667,0.915909090909091,40.18,172,132,62e3e279a59d6dea46d86b42,Second,23,21,M,0.07424242424242433
92,34,B_exp2,0.6953703703703704,0.7625,65.09,134,133,62e3e279a59d6dea46d86b42,Second,23,21,M,0.06712962962962954
92,45,A_exp2,0.9907407407407408,0.95,31.29,177,134,62e3e279a59d6dea46d86b42,Second,23,21,M,-0.040740740740740855
92,14,D_exp2,0.14444444444444443,0.421590909090909,91.77,56,135,62e3e279a59d6dea46d86b42,Second,23,21,M,0.2771464646464646
92,19,C_exp2,0.15740740740740738,0.506818181818182,87.29,75,136,62e3e279a59d6dea46d86b42,Second,23,21,M,0.34941077441077456
92,4,A_exp2,0.08703703703703702,0.251136363636364,97.45,13,137,62e3e279a59d6dea46d86b42,Second,23,21,M,0.16409932659932697
92,7,A_exp2,0.14166666666666666,0.302272727272727,96.21,25,138,62e3e279a59d6dea46d86b42,Second,23,21,M,0.16060606060606036
92,3,B_exp2,0.06574074074074077,0.234090909090909,97.85,10,139,62e3e279a59d6dea46d86b42,Second,23,21,M,0.16835016835016822
92,9,A_exp2,0.02407407407407408,0.336363636363636,95.17,33,140,62e3e279a59d6dea46d86b42,Second,23,21,M,0.3122895622895619
92,16,B_exp2,0.19907407407407407,0.455681818181818,90.06,62,141,62e3e279a59d6dea46d86b42,Second,23,21,M,0.25660774410774395
92,17,A_exp2,0.20555555555555555,0.472727272727273,89.16,65,142,62e3e279a59d6dea46d86b42,Second,23,21,M,0.26717171717171745
92,24,C_exp2,0.21574074074074073,0.592045454545455,81.33,95,143,62e3e279a59d6dea46d86b42,Second,23,21,M,0.37630471380471425
92,18,B_exp2,0.175,0.489772727272727,88.21,70,144,62e3e279a59d6dea46d86b42,Second,23,21,M,0.31477272727272704
92,21,A_exp2,0.15185185185185185,0.540909090909091,85.06,81,146,62e3e279a59d6dea46d86b42,Second,23,21,M,0.38905723905723916
92,32,C_exp2,0.3509259259259259,0.728409090909091,68.93,127,147,62e3e279a59d6dea46d86b42,Second,23,21,M,0.3774831649831651
92,30,A_exp2,0.2462962962962963,0.694318181818182,72.45,117,148,62e3e279a59d6dea46d86b42,Second,23,21,M,0.44802188552188565
92,8,A_exp2,0.09907407407407408,0.319318181818182,95.69,29,149,62e3e279a59d6dea46d86b42,Second,23,21,M,0.2202441077441079
92,43,A_exp2,0.9046296296296296,0.915909090909091,40.18,169,150,62e3e279a59d6dea46d86b42,Second,23,21,M,0.011279461279461445
92,31,B_exp2,0.3027777777777778,0.711363636363636,70.76,122,151,62e3e279a59d6dea46d86b42,Second,23,21,M,0.40858585858585816
92,37,A_exp2,0.6990740740740741,0.813636363636363,58.43,145,152,62e3e279a59d6dea46d86b42,Second,23,21,M,0.11456228956228898
92,36,B_exp2,0.6055555555555555,0.796590909090909,60.8,142,153,62e3e279a59d6dea46d86b42,Second,23,21,M,0.1910353535353535
92,30,B_exp2,0.4583333333333333,0.694318181818182,72.45,118,154,62e3e279a59d6dea46d86b42,Second,23,21,M,0.23598484848484863
92,38,D_exp2,0.49444444444444446,0.830681818181818,55.96,152,155,62e3e279a59d6dea46d86b42,Second,23,21,M,0.3362373737373735
92,42,C_exp2,0.787037037037037,0.898863636363636,43.85,167,156,62e3e279a59d6dea46d86b42,Second,23,21,M,0.111826599326599
92,25,C_exp2,0.3111111111111111,0.609090909090909,80.05,99,157,62e3e279a59d6dea46d86b42,Second,23,21,M,0.2979797979797979
92,21,B_exp2,0.3833333333333333,0.540909090909091,85.06,82,158,62e3e279a59d6dea46d86b42,Second,23,21,M,0.1575757575757577
92,5,D_exp2,0.2583333333333333,0.268181818181818,97.09,20,159,62e3e279a59d6dea46d86b42,Second,23,21,M,0.009848484848484718
92,18,D_exp2,0.175,0.489772727272727,88.21,72,161,62e3e279a59d6dea46d86b42,Second,23,21,M,0.31477272727272704
92,32,A_exp2,0.5925925925925926,0.728409090909091,68.93,125,162,62e3e279a59d6dea46d86b42,Second,23,21,M,0.13581649831649845
92,7,C_exp2,0.13333333333333336,0.302272727272727,96.21,27,163,62e3e279a59d6dea46d86b42,Second,23,21,M,0.16893939393939367
92,24,D_exp2,0.362962962962963,0.592045454545455,81.33,96,165,62e3e279a59d6dea46d86b42,Second,23,21,M,0.229082491582492
92,16,D_exp2,0.37222222222222223,0.455681818181818,90.06,64,166,62e3e279a59d6dea46d86b42,Second,23,21,M,0.08345959595959579
92,12,B_exp2,0.2898148148148148,0.3875,93.21,46,167,62e3e279a59d6dea46d86b42,Second,23,21,M,0.09768518518518521
92,2,C_exp2,0.16666666666666669,0.217045454545455,98.2,7,168,62e3e279a59d6dea46d86b42,Second,23,21,M,0.05037878787878833
92,36,C_exp2,0.7935185185185185,0.796590909090909,60.8,143,169,62e3e279a59d6dea46d86b42,Second,23,21,M,0.0030723905723905043
92,4,B_exp2,0.337037037037037,0.251136363636364,97.45,14,170,62e3e279a59d6dea46d86b42,Second,23,21,M,-0.08590067340067303
92,15,C_exp2,0.2851851851851852,0.438636363636364,90.98,59,171,62e3e279a59d6dea46d86b42,Second,23,21,M,0.15345117845117878
92,11,A_exp2,0.3314814814814815,0.370454545454545,93.87,41,172,62e3e279a59d6dea46d86b42,Second,23,21,M,0.03897306397306349
92,33,D_exp2,0.712037037037037,0.745454545454545,67.07,132,173,62e3e279a59d6dea46d86b42,Second,23,21,M,0.03341750841750801
92,2,D_exp2,0.29166666666666663,0.217045454545455,98.2,8,174,62e3e279a59d6dea46d86b42,Second,23,21,M,-0.07462121212121162
92,11,C_exp2,0.15555555555555556,0.370454545454545,93.87,43,175,62e3e279a59d6dea46d86b42,Second,23,21,M,0.21489898989898942
92,44,B_exp2,0.9203703703703704,0.932954545454545,36.02,174,176,62e3e279a59d6dea46d86b42,Second,23,21,M,0.012584175084174642
92,7,D_exp2,0.28703703703703703,0.302272727272727,96.21,28,177,62e3e279a59d6dea46d86b42,Second,23,21,M,0.015235690235689991
92,39,B_exp2,0.6703703703703704,0.847727272727273,53.22,154,178,62e3e279a59d6dea46d86b42,Second,23,21,M,0.1773569023569026
92,41,A_exp2,0.7694444444444444,0.881818181818182,47.24,161,179,62e3e279a59d6dea46d86b42,Second,23,21,M,0.11237373737373757
92,5,B_exp2,0.22685185185185183,0.268181818181818,97.09,18,180,62e3e279a59d6dea46d86b42,Second,23,21,M,0.04132996632996619
92,30,C_exp2,0.5944444444444444,0.694318181818182,72.45,119,181,62e3e279a59d6dea46d86b42,Second,23,21,M,0.0998737373737375
92,14,A_exp2,0.15555555555555556,0.421590909090909,91.77,53,182,62e3e279a59d6dea46d86b42,Second,23,21,M,0.26603535353535346
92,27,C_exp2,0.4759259259259259,0.643181818181818,77.13,107,183,62e3e279a59d6dea46d86b42,Second,23,21,M,0.16725589225589205
92,26,D_exp2,0.19537037037037036,0.626136363636364,78.63,104,184,62e3e279a59d6dea46d86b42,Second,23,21,M,0.4307659932659937
92,19,A_exp2,0.2861111111111111,0.506818181818182,87.29,73,185,62e3e279a59d6dea46d86b42,Second,23,21,M,0.22070707070707085
80,26,D_exp2,0.43781503668684774,0.626136363636364,78.63,104,0,62e3e20a92aaffe7d1e9bf5d,First,21,31,F,0.1883213269495163
80,41,C_exp2,0.7922020376173664,0.881818181818182,47.24,163,1,62e3e20a92aaffe7d1e9bf5d,First,21,31,F,0.08961614420081554
80,34,D_exp2,0.6561840573038183,0.7625,65.09,136,2,62e3e20a92aaffe7d1e9bf5d,First,21,31,F,0.10631594269618161
80,30,D_exp2,0.6006665252439918,0.694318181818182,72.45,120,3,62e3e20a92aaffe7d1e9bf5d,First,21,31,F,0.09365165657419017
80,34,B_exp2,0.7117015893636447,0.7625,65.09,134,4,62e3e20a92aaffe7d1e9bf5d,First,21,31,F,0.05079841063635526
80,5,D_exp2,0.26941177198060096,0.268181818181818,97.09,20,5,62e3e20a92aaffe7d1e9bf5d,First,21,31,F,-0.0012299537987829345
80,23,A_exp2,0.5062867130945801,0.575,82.61,89,6,62e3e20a92aaffe7d1e9bf5d,First,21,31,F,0.06871328690541989
80,12,B_exp2,0.3351075603137823,0.3875,93.21,46,7,62e3e20a92aaffe7d1e9bf5d,First,21,31,F,0.05239243968621771
80,37,B_exp2,0.7690697899502384,0.813636363636363,58.43,146,8,62e3e20a92aaffe7d1e9bf5d,First,21,31,F,0.0445665736861246
80,32,B_exp2,0.6034424133185431,0.728409090909091,68.93,126,9,62e3e20a92aaffe7d1e9bf5d,First,21,31,F,0.12496667759054791
80,11,A_exp2,0.19538839590083237,0.370454545454545,93.87,41,10,62e3e20a92aaffe7d1e9bf5d,First,21,31,F,0.1750661495537126
80,36,D_exp2,0.7098510737910102,0.796590909090909,60.8,144,11,62e3e20a92aaffe7d1e9bf5d,First,21,31,F,0.08673983529989882
80,11,D_exp2,0.3397340404380343,0.370454545454545,93.87,44,12,62e3e20a92aaffe7d1e9bf5d,First,21,31,F,0.03072050501651069
80,13,D_exp2,0.25368181603521006,0.404545454545455,92.49,52,13,62e3e20a92aaffe7d1e9bf5d,First,21,31,F,0.15086363851024492
80,11,B_exp2,0.27033706800545143,0.370454545454545,93.87,42,14,62e3e20a92aaffe7d1e9bf5d,First,21,31,F,0.10011747744909355
80,3,D_exp2,0.13524438371675368,0.234090909090909,97.85,12,15,62e3e20a92aaffe7d1e9bf5d,First,21,31,F,0.09884652537415531
80,5,B_exp2,0.19076195401511337,0.268181818181818,97.09,18,16,62e3e20a92aaffe7d1e9bf5d,First,21,31,F,0.07741986416670465
80,19,C_exp2,0.2324000839407167,0.506818181818182,87.29,75,17,62e3e20a92aaffe7d1e9bf5d,First,21,31,F,0.27441809787746524
80,16,C_exp2,0.22962423410469857,0.455681818181818,90.06,63,18,62e3e20a92aaffe7d1e9bf5d,First,21,31,F,0.22605758407711946
80,9,B_exp2,0.26941177198060096,0.336363636363636,95.17,34,19,62e3e20a92aaffe7d1e9bf5d,First,21,31,F,0.06695186438303502
80,44,B_exp2,0.9458006424030728,0.932954545454545,36.02,174,20,62e3e20a92aaffe7d1e9bf5d,First,21,31,F,-0.012846096948527785
80,36,C_exp2,0.7246557337115507,0.796590909090909,60.8,143,21,62e3e20a92aaffe7d1e9bf5d,First,21,31,F,0.07193517537935834
80,25,D_exp2,0.49240727272182383,0.609090909090909,80.05,100,22,62e3e20a92aaffe7d1e9bf5d,First,21,31,F,0.11668363636908519
80,44,A_exp2,0.8736277818959386,0.932954545454545,36.02,173,23,62e3e20a92aaffe7d1e9bf5d,First,21,31,F,0.059326763558606443
80,28,A_exp2,0.4720508366521807,0.660227272727273,75.63,109,24,62e3e20a92aaffe7d1e9bf5d,First,21,31,F,0.18817643607509227
80,33,D_exp2,0.4692749485776294,0.745454545454545,67.07,132,25,62e3e20a92aaffe7d1e9bf5d,First,21,31,F,0.2761795968769156
80,15,A_exp2,0.33788344838833345,0.438636363636364,90.98,57,26,62e3e20a92aaffe7d1e9bf5d,First,21,31,F,0.10075291524803054
80,44,C_exp2,0.8236620259852145,0.932954545454545,36.02,175,27,62e3e20a92aaffe7d1e9bf5d,First,21,31,F,0.1092925194693305
80,35,A_exp2,0.564580133228958,0.779545454545455,62.96,137,28,62e3e20a92aaffe7d1e9bf5d,First,21,31,F,0.21496532131649704
80,6,C_exp2,0.065847449522704,0.285227272727273,96.65,23,29,62e3e20a92aaffe7d1e9bf5d,First,21,31,F,0.219379823204569
80,2,B_exp2,0.00940462143802706,0.217045454545455,98.2,6,30,62e3e20a92aaffe7d1e9bf5d,First,21,31,F,0.20764083310742795
80,5,A_exp2,0.210193094059906,0.268181818181818,97.09,17,31,62e3e20a92aaffe7d1e9bf5d,First,21,31,F,0.05798872412191203
80,9,D_exp2,0.1537502277366959,0.336363636363636,95.17,36,32,62e3e20a92aaffe7d1e9bf5d,First,21,31,F,0.1826134086269401
80,38,C_exp2,0.7033740016170572,0.830681818181818,55.96,151,33,62e3e20a92aaffe7d1e9bf5d,First,21,31,F,0.12730781656476076
80,38,A_exp2,0.7940526296670672,0.830681818181818,55.96,149,34,62e3e20a92aaffe7d1e9bf5d,First,21,31,F,0.03662918851475072
80,15,B_exp2,0.1232155736322314,0.438636363636364,90.98,58,35,62e3e20a92aaffe7d1e9bf5d,First,21,31,F,0.3154207900041326
80,7,C_exp2,0.05381863943818166,0.302272727272727,96.21,27,36,62e3e20a92aaffe7d1e9bf5d,First,21,31,F,0.24845408783454537
80,12,A_exp2,0.15004908187582733,0.3875,93.21,45,37,62e3e20a92aaffe7d1e9bf5d,First,21,31,F,0.23745091812417268
80,25,C_exp2,0.19353780385113145,0.609090909090909,80.05,99,38,62e3e20a92aaffe7d1e9bf5d,First,21,31,F,0.41555310523977756
80,31,B_exp2,0.5035108250200288,0.711363636363636,70.76,122,39,62e3e20a92aaffe7d1e9bf5d,First,21,31,F,0.20785281134360722
80,34,A_exp2,0.6478564695572309,0.7625,65.09,133,40,62e3e20a92aaffe7d1e9bf5d,First,21,31,F,0.11464353044276909
80,29,C_exp2,0.49980964092062713,0.677272727272727,74.03,115,41,62e3e20a92aaffe7d1e9bf5d,First,21,31,F,0.1774630863520999
80,35,B_exp2,0.6497070616069317,0.779545454545455,62.96,138,42,62e3e20a92aaffe7d1e9bf5d,First,21,31,F,0.12983839293852328
80,35,D_exp2,0.7496386499054457,0.779545454545455,62.96,140,43,62e3e20a92aaffe7d1e9bf5d,First,21,31,F,0.029906804640009277
80,33,A_exp2,0.686718749646816,0.745454545454545,67.07,129,44,62e3e20a92aaffe7d1e9bf5d,First,21,31,F,0.05873579580772903
80,9,A_exp2,0.18428488184116049,0.336363636363636,95.17,33,45,62e3e20a92aaffe7d1e9bf5d,First,21,31,F,0.1520787545224755
80,16,B_exp2,0.10100854551288756,0.455681818181818,90.06,62,46,62e3e20a92aaffe7d1e9bf5d,First,21,31,F,0.35467327266893045
80,27,D_exp2,0.24813007812464064,0.643181818181818,77.13,108,47,62e3e20a92aaffe7d1e9bf5d,First,21,31,F,0.39505174005717736
80,40,D_exp2,0.8218114339355138,0.864772727272727,50.34,160,48,62e3e20a92aaffe7d1e9bf5d,First,21,31,F,0.04296129333721321
80,38,D_exp2,0.7431615777314928,0.830681818181818,55.96,152,49,62e3e20a92aaffe7d1e9bf5d,First,21,31,F,0.08752024045032514
80,12,C_exp2,0.131543199617352,0.3875,93.21,47,50,62e3e20a92aaffe7d1e9bf5d,First,21,31,F,0.255956800382648
80,24,B_exp2,0.2425783019755382,0.592045454545455,81.33,94,51,62e3e20a92aaffe7d1e9bf5d,First,21,31,F,0.3494671525699168
80,8,A_exp2,0.11951442777136272,0.319318181818182,95.69,29,52,62e3e20a92aaffe7d1e9bf5d,First,21,31,F,0.19980375404681927
80,17,B_exp2,0.15652611581124715,0.472727272727273,89.16,66,53,62e3e20a92aaffe7d1e9bf5d,First,21,31,F,0.31620115691602585
80,1,C_exp2,0.05937041558728412,0.2,98.47,3,54,62e3e20a92aaffe7d1e9bf5d,First,21,31,F,0.1406295844127159
80,30,A_exp2,0.5803100891743487,0.694318181818182,72.45,117,55,62e3e20a92aaffe7d1e9bf5d,First,21,31,F,0.11400809264383327
80,20,B_exp2,0.28976820805024406,0.523863636363636,86.18,78,57,62e3e20a92aaffe7d1e9bf5d,First,21,31,F,0.23409542831339192
80,22,C_exp2,0.2740382521048531,0.557954545454545,83.86,87,58,62e3e20a92aaffe7d1e9bf5d,First,21,31,F,0.28391629334969193
80,17,D_exp2,0.3286304881398293,0.472727272727273,89.16,68,59,62e3e20a92aaffe7d1e9bf5d,First,21,31,F,0.14409678458744368
80,14,B_exp2,0.4304126684880442,0.421590909090909,91.77,54,60,62e3e20a92aaffe7d1e9bf5d,First,21,31,F,-0.008821759397135198
80,31,C_exp2,0.5118384127666163,0.711363636363636,70.76,123,61,62e3e20a92aaffe7d1e9bf5d,First,21,31,F,0.19952522359701963
80,13,A_exp2,0.5146143008411677,0.404545454545455,92.49,49,62,62e3e20a92aaffe7d1e9bf5d,First,21,31,F,-0.11006884629571267
80,45,B_exp2,0.9791111463435552,0.95,31.29,178,63,62e3e20a92aaffe7d1e9bf5d,First,21,31,F,-0.029111146343555272
80,39,A_exp2,0.7514891654780804,0.847727272727273,53.22,153,64,62e3e20a92aaffe7d1e9bf5d,First,21,31,F,0.09623810724919257
80,4,C_exp2,0,0.251136363636364,97.45,15,65,62e3e20a92aaffe7d1e9bf5d,First,21,31,F,0.251136363636364
80,2,A_exp2,0,0.217045454545455,98.2,5,66,62e3e20a92aaffe7d1e9bf5d,First,21,31,F,0.217045454545455
80,2,D_exp2,0,0.217045454545455,98.2,8,68,62e3e20a92aaffe7d1e9bf5d,First,21,31,F,0.217045454545455
80,43,A_exp2,0.92636950235828,0.915909090909091,40.18,169,69,62e3e20a92aaffe7d1e9bf5d,First,21,31,F,-0.010460411449188967
80,42,C_exp2,0.7847997458956293,0.898863636363636,43.85,167,70,62e3e20a92aaffe7d1e9bf5d,First,21,31,F,0.11406389046800669
80,10,B_exp2,0.06307156144815279,0.353409090909091,94.56,38,71,62e3e20a92aaffe7d1e9bf5d,First,21,31,F,0.2903375294609382
80,28,B_exp2,0.4008033486469633,0.660227272727273,75.63,110,72,62e3e20a92aaffe7d1e9bf5d,First,21,31,F,0.2594239240803097
80,3,B_exp2,0.12599146170678255,0.234090909090909,97.85,10,73,62e3e20a92aaffe7d1e9bf5d,First,21,31,F,0.10809944738412644
80,29,A_exp2,0.6737646052989101,0.677272727272727,74.03,113,74,62e3e20a92aaffe7d1e9bf5d,First,21,31,F,0.003508121973816891
80,26,C_exp2,0.24350359800038865,0.626136363636364,78.63,103,75,62e3e20a92aaffe7d1e9bf5d,First,21,31,F,0.38263276563597537
80,44,D_exp2,0.953203010601876,0.932954545454545,36.02,176,76,62e3e20a92aaffe7d1e9bf5d,First,21,31,F,-0.02024846514733092
80,31,D_exp2,0.7181786615375977,0.711363636363636,70.76,124,77,62e3e20a92aaffe7d1e9bf5d,First,21,31,F,-0.0068150251739617085
80,15,D_exp2,0.2064919099605042,0.438636363636364,90.98,60,78,62e3e20a92aaffe7d1e9bf5d,First,21,31,F,0.23214445367585979
80,5,C_exp2,0.11581324367196112,0.268181818181818,97.09,19,79,62e3e20a92aaffe7d1e9bf5d,First,21,31,F,0.1523685745098569
80,31,A_exp2,0.34991222023432256,0.711363636363636,70.76,121,80,62e3e20a92aaffe7d1e9bf5d,First,21,31,F,0.3614514161293134
80,39,B_exp2,0.7727708975725739,0.847727272727273,53.22,154,81,62e3e20a92aaffe7d1e9bf5d,First,21,31,F,0.0749563751546991
80,1,D_exp2,0.1981642839753836,0.2,98.47,4,82,62e3e20a92aaffe7d1e9bf5d,First,21,31,F,0.0018357160246164073
80,14,A_exp2,0.138020271791305,0.421590909090909,91.77,53,83,62e3e20a92aaffe7d1e9bf5d,First,21,31,F,0.283570637299604
80,28,D_exp2,0.296245280224197,0.660227272727273,75.63,112,84,62e3e20a92aaffe7d1e9bf5d,First,21,31,F,0.363981992503076
80,45,A_exp2,0.9939158827411618,0.95,31.29,177,85,62e3e20a92aaffe7d1e9bf5d,First,21,31,F,-0.04391588274116187
80,24,C_exp2,0.24535419005008952,0.592045454545455,81.33,95,86,62e3e20a92aaffe7d1e9bf5d,First,21,31,F,0.34669126449536547
80,42,A_exp2,0.8773289659953402,0.898863636363636,43.85,165,87,62e3e20a92aaffe7d1e9bf5d,First,21,31,F,0.021534670368295816
80,34,C_exp2,0.4489185125079864,0.7625,65.09,135,88,62e3e20a92aaffe7d1e9bf5d,First,21,31,F,0.31358148749201353
80,21,C_exp2,0.2592335921843127,0.540909090909091,85.06,83,89,62e3e20a92aaffe7d1e9bf5d,First,21,31,F,0.2816754987247783
80,32,D_exp2,0.4766773167764329,0.728409090909091,68.93,128,90,62e3e20a92aaffe7d1e9bf5d,First,21,31,F,0.2517317741326581
80,23,B_exp2,0.40357923672151463,0.575,82.61,90,91,62e3e20a92aaffe7d1e9bf5d,First,21,31,F,0.17142076327848532
80,30,B_exp2,0.4424415168110998,0.694318181818182,72.45,118,92,62e3e20a92aaffe7d1e9bf5d,First,21,31,F,0.25187666500708217
80,20,A_exp2,0.3443605205622863,0.523863636363636,86.18,77,93,62e3e20a92aaffe7d1e9bf5d,Second,21,31,F,0.1795031158013497
80,21,A_exp2,0.3443605205622863,0.540909090909091,85.06,81,94,62e3e20a92aaffe7d1e9bf5d,Second,21,31,F,0.19654857034680473
80,36,A_exp2,0.4581714727564906,0.796590909090909,60.8,141,95,62e3e20a92aaffe7d1e9bf5d,Second,21,31,F,0.3384194363344184
80,19,B_exp2,0.2324000839407167,0.506818181818182,87.29,74,97,62e3e20a92aaffe7d1e9bf5d,Second,21,31,F,0.27441809787746524
80,4,B_exp2,0.2120436478710736,0.251136363636364,97.45,14,98,62e3e20a92aaffe7d1e9bf5d,Second,21,31,F,0.03909271576529039
80,32,C_exp2,0.3730445443785169,0.728409090909091,68.93,127,99,62e3e20a92aaffe7d1e9bf5d,Second,21,31,F,0.3553645465305741
80,8,C_exp2,0.19168721180143067,0.319318181818182,95.69,31,100,62e3e20a92aaffe7d1e9bf5d,Second,21,31,F,0.12763097001675133
80,45,D_exp2,0.9744847426963692,0.95,31.29,180,101,62e3e20a92aaffe7d1e9bf5d,Second,21,31,F,-0.024484742696369244
80,29,D_exp2,0.5988159331942909,0.677272727272727,74.03,116,103,62e3e20a92aaffe7d1e9bf5d,Second,21,31,F,0.07845679407843609
80,27,C_exp2,0.5858618653234513,0.643181818181818,77.13,107,104,62e3e20a92aaffe7d1e9bf5d,Second,21,31,F,0.05731995285836666
80,36,B_exp2,0.6968969294431042,0.796590909090909,60.8,142,105,62e3e20a92aaffe7d1e9bf5d,Second,21,31,F,0.0996939796478048
80,41,D_exp2,0.7699950859750889,0.881818181818182,47.24,164,106,62e3e20a92aaffe7d1e9bf5d,Second,21,31,F,0.11182309584309302
80,43,C_exp2,0.8134837697118598,0.915909090909091,40.18,171,107,62e3e20a92aaffe7d1e9bf5d,Second,21,31,F,0.10242532119723124
80,6,B_exp2,0.1981642839753836,0.285227272727273,96.65,22,108,62e3e20a92aaffe7d1e9bf5d,Second,21,31,F,0.08706298875188939
80,7,B_exp2,0.1981642839753836,0.302272727272727,96.21,26,109,62e3e20a92aaffe7d1e9bf5d,Second,21,31,F,0.10410844329734342
80,7,A_exp2,0.12876734978133386,0.302272727272727,96.21,25,110,62e3e20a92aaffe7d1e9bf5d,Second,21,31,F,0.17350537749139316
80,12,D_exp2,0.16300314974666702,0.3875,93.21,48,111,62e3e20a92aaffe7d1e9bf5d,Second,21,31,F,0.224496850253333
80,19,D_exp2,0.262009480258864,0.506818181818182,87.29,76,112,62e3e20a92aaffe7d1e9bf5d,Second,21,31,F,0.24480870155931794
80,42,B_exp2,0.8578978259505476,0.898863636363636,43.85,166,113,62e3e20a92aaffe7d1e9bf5d,Second,21,31,F,0.04096581041308833
80,26,A_exp2,0.2138942399207745,0.626136363636364,78.63,101,114,62e3e20a92aaffe7d1e9bf5d,Second,21,31,F,0.41224212371558955
80,2,C_exp2,0.11581324367196112,0.217045454545455,98.2,7,115,62e3e20a92aaffe7d1e9bf5d,Second,21,31,F,0.10123221087349389
80,14,C_exp2,0.11581324367196112,0.421590909090909,91.77,55,116,62e3e20a92aaffe7d1e9bf5d,Second,21,31,F,0.3057776654189479
80,3,C_exp2,0.11581324367196112,0.234090909090909,97.85,11,117,62e3e20a92aaffe7d1e9bf5d,Second,21,31,F,0.11827766541894787
80,32,A_exp2,0.5053614170697297,0.728409090909091,68.93,125,118,62e3e20a92aaffe7d1e9bf5d,Second,21,31,F,0.2230476738393613
80,24,D_exp2,0.40635512479606595,0.592045454545455,81.33,96,119,62e3e20a92aaffe7d1e9bf5d,Second,21,31,F,0.18569032974938904
80,14,D_exp2,0.2462794860749399,0.421590909090909,91.77,56,120,62e3e20a92aaffe7d1e9bf5d,Second,21,31,F,0.1753114230159691
80,40,C_exp2,0.7736961935974243,0.864772727272727,50.34,159,121,62e3e20a92aaffe7d1e9bf5d,Second,21,31,F,0.09107653367530277
80,20,C_exp2,0.2490553741494911,0.523863636363636,86.18,79,122,62e3e20a92aaffe7d1e9bf5d,Second,21,31,F,0.2748082622141449
80,43,D_exp2,0.8236620259852145,0.915909090909091,40.18,172,123,62e3e20a92aaffe7d1e9bf5d,Second,21,31,F,0.09224706492387647
80,27,B_exp2,0.5266431491642231,0.643181818181818,77.13,106,124,62e3e20a92aaffe7d1e9bf5d,Second,21,31,F,0.11653866901759491
80,24,A_exp2,0.4082056403687005,0.592045454545455,81.33,93,125,62e3e20a92aaffe7d1e9bf5d,Second,21,31,F,0.1838398141767545
80,40,B_exp2,0.7829491538459287,0.864772727272727,50.34,158,126,62e3e20a92aaffe7d1e9bf5d,Second,21,31,F,0.08182357342679836
80,18,B_exp2,0.37119395232881613,0.489772727272727,88.21,70,127,62e3e20a92aaffe7d1e9bf5d,Second,21,31,F,0.11857877494391089
80,37,A_exp2,0.6672876096020235,0.813636363636363,58.43,145,128,62e3e20a92aaffe7d1e9bf5d,Second,21,31,F,0.14634875403433956
80,3,A_exp2,0,0.234090909090909,97.85,9,129,62e3e20a92aaffe7d1e9bf5d,Second,21,31,F,0.234090909090909
80,16,D_exp2,0.11026150576139164,0.455681818181818,90.06,64,130,62e3e20a92aaffe7d1e9bf5d,Second,21,31,F,0.34542031242042637
80,15,C_exp2,0.05474393546303208,0.438636363636364,90.98,59,131,62e3e20a92aaffe7d1e9bf5d,Second,21,31,F,0.3838924281733319
80,45,C_exp2,0.9643064099459484,0.95,31.29,179,132,62e3e20a92aaffe7d1e9bf5d,Second,21,31,F,-0.01430640994594845
80,39,D_exp2,0.7413109856817921,0.847727272727273,53.22,156,133,62e3e20a92aaffe7d1e9bf5d,Second,21,31,F,0.1064162870454809
80,42,D_exp2,0.7302075098606531,0.898863636363636,43.85,168,134,62e3e20a92aaffe7d1e9bf5d,Second,21,31,F,0.1686561265029829
80,9,C_exp2,0.08990506969174866,0.336363636363636,95.17,35,135,62e3e20a92aaffe7d1e9bf5d,Second,21,31,F,0.2464585666718873
80,4,D_exp2,0.05474393546303208,0.251136363636364,97.45,16,136,62e3e20a92aaffe7d1e9bf5d,Second,21,31,F,0.1963924281733319
80,8,D_exp2,0.08527858956749657,0.319318181818182,95.69,32,137,62e3e20a92aaffe7d1e9bf5d,Second,21,31,F,0.23403959225068544
80,1,B_exp2,0.08527858956749657,0.2,98.47,2,138,62e3e20a92aaffe7d1e9bf5d,Second,21,31,F,0.11472141043250345
80,22,A_exp2,0.24998067017434156,0.557954545454545,83.86,85,139,62e3e20a92aaffe7d1e9bf5d,Second,21,31,F,0.3079738752802035
80,20,D_exp2,0.19723898795053324,0.523863636363636,86.18,80,140,62e3e20a92aaffe7d1e9bf5d,Second,21,31,F,0.32662464841310274
80,4,A_exp2,0.1028591375625883,0.251136363636364,97.45,13,141,62e3e20a92aaffe7d1e9bf5d,Second,21,31,F,0.1482772260737757
80,28,C_exp2,0.3027223523981498,0.660227272727273,75.63,111,142,62e3e20a92aaffe7d1e9bf5d,Second,21,31,F,0.3575049203291232
80,10,C_exp2,0.15282493171184547,0.353409090909091,94.56,39,143,62e3e20a92aaffe7d1e9bf5d,Second,21,31,F,0.20058415919724554
80,23,C_exp2,0.16300314974666702,0.575,82.61,91,144,62e3e20a92aaffe7d1e9bf5d,Second,21,31,F,0.41199685025333294
80,25,A_exp2,0.1694802219206199,0.609090909090909,80.05,97,145,62e3e20a92aaffe7d1e9bf5d,Second,21,31,F,0.4396106871702891
80,1,A_exp2,0.09545680760231812,0.2,98.47,1,146,62e3e20a92aaffe7d1e9bf5d,Second,21,31,F,0.1045431923976819
80,21,B_exp2,0.29717057624904747,0.540909090909091,85.06,82,147,62e3e20a92aaffe7d1e9bf5d,Second,21,31,F,0.24373851466004354
80,18,C_exp2,0.24072774816437048,0.489772727272727,88.21,71,148,62e3e20a92aaffe7d1e9bf5d,Second,21,31,F,0.24904497910835655
80,37,C_exp2,0.655258761278968,0.813636363636363,58.43,147,149,62e3e20a92aaffe7d1e9bf5d,Second,21,31,F,0.15837760235739506
80,35,C_exp2,0.6025171172936926,0.779545454545455,62.96,139,151,62e3e20a92aaffe7d1e9bf5d,Second,21,31,F,0.17702833725176237
80,39,C_exp2,0.6108447050402802,0.847727272727273,53.22,155,152,62e3e20a92aaffe7d1e9bf5d,Second,21,31,F,0.23688256768699278
80,22,D_exp2,0.4572461767316403,0.557954545454545,83.86,88,153,62e3e20a92aaffe7d1e9bf5d,Second,21,31,F,0.10070836872290473
80,10,A_exp2,0.20186542983625216,0.353409090909091,94.56,37,154,62e3e20a92aaffe7d1e9bf5d,Second,21,31,F,0.15154366107283884
80,13,B_exp2,0.147273193801276,0.404545454545455,92.49,50,155,62e3e20a92aaffe7d1e9bf5d,Second,21,31,F,0.25727226074417897
80,41,A_exp2,0.854196641851146,0.881818181818182,47.24,161,156,62e3e20a92aaffe7d1e9bf5d,Second,21,31,F,0.02762153996703598
80,21,D_exp2,0.13524438371675368,0.540909090909091,85.06,84,157,62e3e20a92aaffe7d1e9bf5d,Second,21,31,F,0.4056647071923373
80,6,A_exp2,0.03161161131883777,0.285227272727273,96.65,21,158,62e3e20a92aaffe7d1e9bf5d,Second,21,31,F,0.2536156614084352
80,29,B_exp2,0.43966562873654846,0.677272727272727,74.03,114,159,62e3e20a92aaffe7d1e9bf5d,Second,21,31,F,0.23760709853617856
80,17,A_exp2,0.2712623640303019,0.472727272727273,89.16,65,160,62e3e20a92aaffe7d1e9bf5d,Second,21,31,F,0.2014649086969711
80,22,B_exp2,0.34991222023432256,0.557954545454545,83.86,86,161,62e3e20a92aaffe7d1e9bf5d,Second,21,31,F,0.20804232522022248
80,19,A_exp2,0.296245280224197,0.506818181818182,87.29,73,162,62e3e20a92aaffe7d1e9bf5d,Second,21,31,F,0.21057290159398495
80,26,B_exp2,0.49240727272182383,0.626136363636364,78.63,102,163,62e3e20a92aaffe7d1e9bf5d,Second,21,31,F,0.13372909091454022
80,43,B_exp2,0.8421678700051567,0.915909090909091,40.18,170,165,62e3e20a92aaffe7d1e9bf5d,Second,21,31,F,0.07374122090393431
80,38,B_exp2,0.7126268853884954,0.830681818181818,55.96,150,166,62e3e20a92aaffe7d1e9bf5d,Second,21,31,F,0.11805493279332258
80,16,A_exp2,0.5719824249506951,0.455681818181818,90.06,61,167,62e3e20a92aaffe7d1e9bf5d,Second,21,31,F,-0.11630060676887705
80,10,D_exp2,0.11581324367196112,0.353409090909091,94.56,40,168,62e3e20a92aaffe7d1e9bf5d,Second,21,31,F,0.2375958472371299
80,13,C_exp2,0.04364042140336011,0.404545454545455,92.49,51,169,62e3e20a92aaffe7d1e9bf5d,Second,21,31,F,0.3609050331420949
80,6,D_exp2,0.04364042140336011,0.285227272727273,96.65,24,170,62e3e20a92aaffe7d1e9bf5d,Second,21,31,F,0.2415868513239129
80,11,C_exp2,0.02420928135856753,0.370454545454545,93.87,43,171,62e3e20a92aaffe7d1e9bf5d,Second,21,31,F,0.34624526409597745
80,27,A_exp2,0.29717057624904747,0.643181818181818,77.13,105,172,62e3e20a92aaffe7d1e9bf5d,Second,21,31,F,0.3460112419327705
80,17,C_exp2,0.17318136778148846,0.472727272727273,89.16,67,173,62e3e20a92aaffe7d1e9bf5d,Second,21,31,F,0.29954590494578454
80,41,B_exp2,0.7015234095673564,0.881818181818182,47.24,162,174,62e3e20a92aaffe7d1e9bf5d,Second,21,31,F,0.18029477225082557
80,23,D_exp2,0.3887745003239078,0.575,82.61,92,175,62e3e20a92aaffe7d1e9bf5d,Second,21,31,F,0.18622549967609214
80,37,D_exp2,0.4970337528460758,0.813636363636363,58.43,148,176,62e3e20a92aaffe7d1e9bf5d,Second,21,31,F,0.31660261079028723
80,33,C_exp2,0.36564225265677985,0.745454545454545,67.07,131,177,62e3e20a92aaffe7d1e9bf5d,Second,21,31,F,0.3798122927977652
80,7,D_exp2,0.22962423410469857,0.302272727272727,96.21,28,178,62e3e20a92aaffe7d1e9bf5d,Second,21,31,F,0.07264849316802846
80,18,A_exp2,0.24535419005008952,0.489772727272727,88.21,69,179,62e3e20a92aaffe7d1e9bf5d,Second,21,31,F,0.2444185372226375
80,25,B_exp2,0.28699231997569286,0.609090909090909,80.05,98,180,62e3e20a92aaffe7d1e9bf5d,Second,21,31,F,0.32209858911521616
80,30,C_exp2,0.27866473222910526,0.694318181818182,72.45,119,181,62e3e20a92aaffe7d1e9bf5d,Second,21,31,F,0.4156534495890767
80,33,B_exp2,0.460947360831042,0.745454545454545,67.07,130,182,62e3e20a92aaffe7d1e9bf5d,Second,21,31,F,0.28450718462350305
80,8,B_exp2,0.10100854551288756,0.319318181818182,95.69,30,183,62e3e20a92aaffe7d1e9bf5d,Second,21,31,F,0.21830963630529443
80,18,D_exp2,0.377671024502769,0.489772727272727,88.21,72,184,62e3e20a92aaffe7d1e9bf5d,Second,21,31,F,0.11210170276995801
80,40,A_exp2,0.7440868737563433,0.864772727272727,50.34,157,185,62e3e20a92aaffe7d1e9bf5d,Second,21,31,F,0.12068585351638372
77,29,C_exp2,0.25354600694444446,0.677272727272727,74.03,115,0,62e3e266b613b42937358b21,First,27,43,F,0.42372672032828257
77,15,B_exp2,0.0798871527777778,0.438636363636364,90.98,58,1,62e3e266b613b42937358b21,First,27,43,F,0.3587492108585862
77,44,B_exp2,0.9468489583333332,0.932954545454545,36.02,174,2,62e3e266b613b42937358b21,First,27,43,F,-0.01389441287878812
77,37,B_exp2,0.7397048611111111,0.813636363636363,58.43,146,3,62e3e266b613b42937358b21,First,27,43,F,0.07393150252525194
77,35,C_exp2,0.5304557291666667,0.779545454545455,62.96,139,4,62e3e266b613b42937358b21,First,27,43,F,0.24908972537878826
77,23,D_exp2,0.2015798611111111,0.575,82.61,92,5,62e3e266b613b42937358b21,First,27,43,F,0.37342013888888886
77,14,D_exp2,0.10352864583333332,0.421590909090909,91.77,56,6,62e3e266b613b42937358b21,First,27,43,F,0.3180622632575757
77,15,A_exp2,0.15988281250000003,0.438636363636364,90.98,57,7,62e3e266b613b42937358b21,First,27,43,F,0.27875355113636396
77,3,B_exp2,0.03235243055555553,0.234090909090909,97.85,10,8,62e3e266b613b42937358b21,First,27,43,F,0.20173847853535345
77,11,B_exp2,0.1277907986111111,0.370454545454545,93.87,42,9,62e3e266b613b42937358b21,First,27,43,F,0.2426637468434339
77,2,C_exp2,0.02220920138888887,0.217045454545455,98.2,7,10,62e3e266b613b42937358b21,First,27,43,F,0.19483625315656614
77,11,A_exp2,0.0592361111111111,0.370454545454545,93.87,41,11,62e3e266b613b42937358b21,First,27,43,F,0.3112184343434339
77,42,B_exp2,0.9462369791666668,0.898863636363636,43.85,166,12,62e3e266b613b42937358b21,First,27,43,F,-0.04737334280303085
77,36,A_exp2,0.7706032986111111,0.796590909090909,60.8,141,13,62e3e266b613b42937358b21,First,27,43,F,0.025987610479797918
77,9,B_exp2,0.1861588541666667,0.336363636363636,95.17,34,14,62e3e266b613b42937358b21,First,27,43,F,0.15020478219696928
77,8,D_exp2,0.10109374999999998,0.319318181818182,95.69,32,15,62e3e266b613b42937358b21,First,27,43,F,0.21822443181818202
77,9,D_exp2,0.05661024305555556,0.336363636363636,95.17,36,16,62e3e266b613b42937358b21,First,27,43,F,0.2797533933080804
77,22,A_exp2,0.4970572916666667,0.557954545454545,83.86,85,17,62e3e266b613b42937358b21,First,27,43,F,0.06089725378787836
77,23,C_exp2,0.3527604166666667,0.575,82.61,91,18,62e3e266b613b42937358b21,First,27,43,F,0.22223958333333327
77,7,D_exp2,0.2172048611111111,0.302272727272727,96.21,28,19,62e3e266b613b42937358b21,First,27,43,F,0.08506786616161593
77,38,D_exp2,0.8769053819444445,0.830681818181818,55.96,152,20,62e3e266b613b42937358b21,First,27,43,F,-0.046223563762626485
77,21,C_exp2,0.4379557291666667,0.540909090909091,85.06,83,21,62e3e266b613b42937358b21,First,27,43,F,0.10295336174242431
77,43,D_exp2,0.9514453125,0.915909090909091,40.18,172,22,62e3e266b613b42937358b21,First,27,43,F,-0.03553622159090897
77,31,B_exp2,0.7187630208333333,0.711363636363636,70.76,122,23,62e3e266b613b42937358b21,First,27,43,F,-0.007399384469697345
77,39,D_exp2,0.8007682291666667,0.847727272727273,53.22,156,24,62e3e266b613b42937358b21,First,27,43,F,0.04695904356060632
77,31,D_exp2,0.731484375,0.711363636363636,70.76,124,25,62e3e266b613b42937358b21,First,27,43,F,-0.02012073863636399
77,30,A_exp2,0.674609375,0.694318181818182,72.45,117,26,62e3e266b613b42937358b21,First,27,43,F,0.01970880681818199
77,26,B_exp2,0.5796310763888889,0.626136363636364,78.63,102,28,62e3e266b613b42937358b21,First,27,43,F,0.04650528724747516
77,42,C_exp2,0.6253211805555555,0.898863636363636,43.85,167,29,62e3e266b613b42937358b21,First,27,43,F,0.27354245580808045
77,34,C_exp2,0.6290711805555556,0.7625,65.09,135,30,62e3e266b613b42937358b21,First,27,43,F,0.1334288194444444
77,5,B_exp2,0.12939670138888887,0.268181818181818,97.09,18,32,62e3e266b613b42937358b21,First,27,43,F,0.13878511679292915
77,25,A_exp2,0.6381857638888889,0.609090909090909,80.05,97,33,62e3e266b613b42937358b21,First,27,43,F,-0.029094854797979908
77,33,B_exp2,0.7052039930555556,0.745454545454545,67.07,130,34,62e3e266b613b42937358b21,First,27,43,F,0.04025055239898945
77,3,D_exp2,0.1343359375,0.234090909090909,97.85,12,35,62e3e266b613b42937358b21,First,27,43,F,0.09975497159090899
77,26,C_exp2,0.2519661458333333,0.626136363636364,78.63,103,36,62e3e266b613b42937358b21,First,27,43,F,0.3741702178030307
77,40,B_exp2,0.8973307291666667,0.864772727272727,50.34,158,37,62e3e266b613b42937358b21,First,27,43,F,-0.03255800189393965
77,44,C_exp2,0.812890625,0.932954545454545,36.02,175,38,62e3e266b613b42937358b21,First,27,43,F,0.12006392045454506
77,8,B_exp2,0.0826996527777778,0.319318181818182,95.69,30,39,62e3e266b613b42937358b21,First,27,43,F,0.2366185290404042
77,33,C_exp2,0.7337934027777777,0.745454545454545,67.07,131,40,62e3e266b613b42937358b21,First,27,43,F,0.011661142676767322
77,35,A_exp2,0.8853645833333333,0.779545454545455,62.96,137,41,62e3e266b613b42937358b21,First,27,43,F,-0.10581912878787836
77,1,B_exp2,0.1395095486111111,0.2,98.47,2,42,62e3e266b613b42937358b21,First,27,43,F,0.06049045138888892
77,44,A_exp2,0.9595399305555556,0.932954545454545,36.02,173,43,62e3e266b613b42937358b21,First,27,43,F,-0.026585385101010606
77,4,D_exp2,0.2053038194444444,0.251136363636364,97.45,16,44,62e3e266b613b42937358b21,First,27,43,F,0.045832544191919594
77,31,C_exp2,0.37688802083333334,0.711363636363636,70.76,123,45,62e3e266b613b42937358b21,First,27,43,F,0.33447561553030264
77,13,C_exp2,0.17052951388888887,0.404545454545455,92.49,51,46,62e3e266b613b42937358b21,First,27,43,F,0.2340159406565661
77,13,D_exp2,0.26217013888888885,0.404545454545455,92.49,52,47,62e3e266b613b42937358b21,First,27,43,F,0.14237531565656614
77,27,B_exp2,0.5944748263888889,0.643181818181818,77.13,106,48,62e3e266b613b42937358b21,First,27,43,F,0.04870699179292903
77,41,C_exp2,0.7181553819444444,0.881818181818182,47.24,163,49,62e3e266b613b42937358b21,First,27,43,F,0.16366279987373755
77,21,A_exp2,0.6492230902777778,0.540909090909091,85.06,81,50,62e3e266b613b42937358b21,First,27,43,F,-0.1083139993686868
77,32,D_exp2,0.7505946180555556,0.728409090909091,68.93,128,51,62e3e266b613b42937358b21,First,27,43,F,-0.0221855271464646
77,33,A_exp2,0.8409635416666666,0.745454545454545,67.07,129,52,62e3e266b613b42937358b21,First,27,43,F,-0.09550899621212161
77,13,B_exp2,0.7058159722222223,0.404545454545455,92.49,50,53,62e3e266b613b42937358b21,First,27,43,F,-0.30127051767676727
77,8,C_exp2,0.504296875,0.319318181818182,95.69,31,54,62e3e266b613b42937358b21,First,27,43,F,-0.18497869318181798
77,18,C_exp2,0.3616493055555555,0.489772727272727,88.21,71,55,62e3e266b613b42937358b21,First,27,43,F,0.1281234217171715
77,12,A_exp2,0.27900607638888886,0.3875,93.21,45,56,62e3e266b613b42937358b21,First,27,43,F,0.10849392361111115
77,4,A_exp2,0.1560112847222222,0.251136363636364,97.45,13,57,62e3e266b613b42937358b21,First,27,43,F,0.09512507891414179
77,6,B_exp2,0.07552083333333331,0.285227272727273,96.65,22,58,62e3e266b613b42937358b21,First,27,43,F,0.20970643939393968
77,35,D_exp2,0.9175520833333332,0.779545454545455,62.96,140,59,62e3e266b613b42937358b21,First,27,43,F,-0.13800662878787817
77,17,A_exp2,0.7739105902777778,0.472727272727273,89.16,65,60,62e3e266b613b42937358b21,First,27,43,F,-0.30118331755050476
77,30,C_exp2,0.7800086805555555,0.694318181818182,72.45,119,61,62e3e266b613b42937358b21,First,27,43,F,-0.08569049873737355
77,29,B_exp2,0.7237413194444444,0.677272727272727,74.03,114,62,62e3e266b613b42937358b21,First,27,43,F,-0.04646859217171739
77,23,B_exp2,0.6483767361111111,0.575,82.61,90,63,62e3e266b613b42937358b21,First,27,43,F,-0.07337673611111117
77,7,B_exp2,0.5091753472222222,0.302272727272727,96.21,26,64,62e3e266b613b42937358b21,First,27,43,F,-0.20690261994949521
77,22,D_exp2,0.4165668402777778,0.557954545454545,83.86,88,65,62e3e266b613b42937358b21,First,27,43,F,0.14138770517676724
77,3,A_exp2,0.1841189236111111,0.234090909090909,97.85,9,66,62e3e266b613b42937358b21,First,27,43,F,0.04997198547979789
77,14,C_exp2,0.09479166666666666,0.421590909090909,91.77,55,67,62e3e266b613b42937358b21,First,27,43,F,0.32679924242424235
77,42,A_exp2,0.9495920138888888,0.898863636363636,43.85,165,68,62e3e266b613b42937358b21,First,27,43,F,-0.05072837752525283
77,28,D_exp2,0.8246223958333334,0.660227272727273,75.63,112,69,62e3e266b613b42937358b21,First,27,43,F,-0.16439512310606041
77,38,B_exp2,0.9175998263888888,0.830681818181818,55.96,150,70,62e3e266b613b42937358b21,First,27,43,F,-0.08691800820707085
77,34,B_exp2,0.8317144097222222,0.7625,65.09,134,71,62e3e266b613b42937358b21,First,27,43,F,-0.06921440972222226
77,1,A_exp2,0.43993489583333334,0.2,98.47,1,72,62e3e266b613b42937358b21,First,27,43,F,-0.23993489583333333
77,6,A_exp2,0.2751779513888889,0.285227272727273,96.65,21,73,62e3e266b613b42937358b21,First,27,43,F,0.010049321338384098
77,21,D_exp2,0.17582031250000002,0.540909090909091,85.06,84,74,62e3e266b613b42937358b21,First,27,43,F,0.365088778409091
77,16,B_exp2,0.16848958333333336,0.455681818181818,90.06,62,75,62e3e266b613b42937358b21,First,27,43,F,0.28719223484848466
77,2,B_exp2,0.16848958333333336,0.217045454545455,98.2,6,76,62e3e266b613b42937358b21,First,27,43,F,0.048555871212121654
77,19,A_exp2,0.38255208333333335,0.506818181818182,87.29,73,77,62e3e266b613b42937358b21,First,27,43,F,0.1242660984848486
77,28,A_exp2,0.6373741319444445,0.660227272727273,75.63,109,78,62e3e266b613b42937358b21,First,27,43,F,0.022853140782828518
77,1,C_exp2,0.0912456597222222,0.2,98.47,3,79,62e3e266b613b42937358b21,First,27,43,F,0.1087543402777778
77,32,C_exp2,0.6832638888888889,0.728409090909091,68.93,127,80,62e3e266b613b42937358b21,First,27,43,F,0.04514520202020211
77,22,B_exp2,0.6739496527777777,0.557954545454545,83.86,86,81,62e3e266b613b42937358b21,First,27,43,F,-0.1159951073232327
77,20,C_exp2,0.5402951388888889,0.523863636363636,86.18,79,82,62e3e266b613b42937358b21,First,27,43,F,-0.01643150252525294
77,20,D_exp2,0.4048828125,0.523863636363636,86.18,80,83,62e3e266b613b42937358b21,First,27,43,F,0.11898082386363595
77,9,A_exp2,0.3945008680555555,0.336363636363636,95.17,33,84,62e3e266b613b42937358b21,First,27,43,F,-0.05813723169191953
77,45,B_exp2,0.9477560763888888,0.95,31.29,178,85,62e3e266b613b42937358b21,First,27,43,F,0.0022439236111111427
77,25,D_exp2,0.6819401041666666,0.609090909090909,80.05,100,86,62e3e266b613b42937358b21,First,27,43,F,-0.0728491950757576
77,13,A_exp2,0.3873784722222222,0.404545454545455,92.49,49,87,62e3e266b613b42937358b21,First,27,43,F,0.01716698232323277
77,24,C_exp2,0.22792534722222224,0.592045454545455,81.33,95,88,62e3e266b613b42937358b21,First,27,43,F,0.36412010732323274
77,34,A_exp2,0.6929123263888889,0.7625,65.09,133,89,62e3e266b613b42937358b21,First,27,43,F,0.06958767361111107
77,40,C_exp2,0.772109375,0.864772727272727,50.34,159,90,62e3e266b613b42937358b21,First,27,43,F,0.09266335227272704
77,36,B_exp2,0.8155815972222222,0.796590909090909,60.8,142,91,62e3e266b613b42937358b21,First,27,43,F,-0.018990688131313216
77,17,D_exp2,0.3737717013888889,0.472727272727273,89.16,68,92,62e3e266b613b42937358b21,First,27,43,F,0.09895557133838412
77,11,D_exp2,0.2293532986111111,0.370454545454545,93.87,44,93,62e3e266b613b42937358b21,Second,27,43,F,0.1411012468434339
77,28,B_exp2,0.5615668402777778,0.660227272727273,75.63,110,94,62e3e266b613b42937358b21,Second,27,43,F,0.09866043244949518
77,26,D_exp2,0.48835503472222225,0.626136363636364,78.63,104,95,62e3e266b613b42937358b21,Second,27,43,F,0.1377813289141418
77,44,D_exp2,0.9507942708333332,0.932954545454545,36.02,176,96,62e3e266b613b42937358b21,Second,27,43,F,-0.017839725378788196
77,32,A_exp2,0.8051475694444444,0.728409090909091,68.93,125,97,62e3e266b613b42937358b21,Second,27,43,F,-0.07673847853535343
77,33,D_exp2,0.7664930555555556,0.745454545454545,67.07,132,98,62e3e266b613b42937358b21,Second,27,43,F,-0.021038510101010544
77,4,C_exp2,0.4919401041666666,0.251136363636364,97.45,15,99,62e3e266b613b42937358b21,Second,27,43,F,-0.24080374053030262
77,16,C_exp2,0.2674479166666667,0.455681818181818,90.06,63,100,62e3e266b613b42937358b21,Second,27,43,F,0.18823390151515135
77,20,B_exp2,0.27544270833333334,0.523863636363636,86.18,78,101,62e3e266b613b42937358b21,Second,27,43,F,0.24842092803030263
77,40,A_exp2,0.8034027777777778,0.864772727272727,50.34,157,102,62e3e266b613b42937358b21,Second,27,43,F,0.06136994949494923
77,15,C_exp2,0.4383897569444444,0.438636363636364,90.98,59,103,62e3e266b613b42937358b21,Second,27,43,F,2.4660669191961526e-4
77,24,A_exp2,0.6976996527777778,0.592045454545455,81.33,93,104,62e3e266b613b42937358b21,Second,27,43,F,-0.1056541982323228
77,38,A_exp2,0.7864713541666667,0.830681818181818,55.96,149,105,62e3e266b613b42937358b21,Second,27,43,F,0.044210464015151274
77,2,D_exp2,0.34369791666666666,0.217045454545455,98.2,8,106,62e3e266b613b42937358b21,Second,27,43,F,-0.12665246212121165
77,10,C_exp2,0.10380208333333336,0.353409090909091,94.56,39,107,62e3e266b613b42937358b21,Second,27,43,F,0.24960700757575766
77,36,C_exp2,0.7835677083333333,0.796590909090909,60.8,143,108,62e3e266b613b42937358b21,Second,27,43,F,0.013023200757575681
77,12,B_exp2,0.07720486111111113,0.3875,93.21,46,109,62e3e266b613b42937358b21,Second,27,43,F,0.3102951388888889
77,37,C_exp2,0.7967708333333333,0.813636363636363,58.43,147,110,62e3e266b613b42937358b21,Second,27,43,F,0.01686553030302973
77,19,C_exp2,0.5285069444444445,0.506818181818182,87.29,75,111,62e3e266b613b42937358b21,Second,27,43,F,-0.021688762626262514
77,7,A_exp2,0.5315104166666667,0.302272727272727,96.21,25,112,62e3e266b613b42937358b21,Second,27,43,F,-0.22923768939393963
77,10,B_exp2,0.27925781250000004,0.353409090909091,94.56,38,113,62e3e266b613b42937358b21,Second,27,43,F,0.07415127840909097
77,10,D_exp2,0.2429427083333333,0.353409090909091,94.56,40,114,62e3e266b613b42937358b21,Second,27,43,F,0.1104663825757577
77,12,C_exp2,0.2011935763888889,0.3875,93.21,47,115,62e3e266b613b42937358b21,Second,27,43,F,0.1863064236111111
77,10,A_exp2,0.09367187500000002,0.353409090909091,94.56,37,116,62e3e266b613b42937358b21,Second,27,43,F,0.259737215909091
77,4,B_exp2,0.09887586805555554,0.251136363636364,97.45,14,117,62e3e266b613b42937358b21,Second,27,43,F,0.15226049558080845
77,25,C_exp2,0.0947048611111111,0.609090909090909,80.05,99,118,62e3e266b613b42937358b21,Second,27,43,F,0.5143860479797979
77,14,A_exp2,0.11641059027777778,0.421590909090909,91.77,53,119,62e3e266b613b42937358b21,Second,27,43,F,0.30518031881313123
77,38,C_exp2,0.7747743055555556,0.830681818181818,55.96,151,120,62e3e266b613b42937358b21,Second,27,43,F,0.05590751262626237
77,27,C_exp2,0.6550954861111111,0.643181818181818,77.13,107,121,62e3e266b613b42937358b21,Second,27,43,F,-0.011913667929293159
77,30,D_exp2,0.7139887152777777,0.694318181818182,72.45,120,122,62e3e266b613b42937358b21,Second,27,43,F,-0.019670533459595796
77,26,A_exp2,0.7487630208333333,0.626136363636364,78.63,101,123,62e3e266b613b42937358b21,Second,27,43,F,-0.1226266571969693
77,18,B_exp2,0.6547829861111111,0.489772727272727,88.21,70,124,62e3e266b613b42937358b21,Second,27,43,F,-0.16501025883838405
77,19,B_exp2,0.7028862847222223,0.506818181818182,87.29,74,125,62e3e266b613b42937358b21,Second,27,43,F,-0.1960681029040403
77,41,B_exp2,0.8106076388888889,0.881818181818182,47.24,162,126,62e3e266b613b42937358b21,Second,27,43,F,0.07121054292929307
77,36,D_exp2,0.8425217013888888,0.796590909090909,60.8,144,127,62e3e266b613b42937358b21,Second,27,43,F,-0.045930792297979806
77,6,D_exp2,0.03131944444444445,0.285227272727273,96.65,24,128,62e3e266b613b42937358b21,Second,27,43,F,0.25390782828282854
77,45,A_exp2,0.9523220486111112,0.95,31.29,177,130,62e3e266b613b42937358b21,Second,27,43,F,-0.0023220486111112937
77,42,D_exp2,0.923185763888889,0.898863636363636,43.85,168,131,62e3e266b613b42937358b21,Second,27,43,F,-0.02432212752525298
77,16,D_exp2,0.12431423611111107,0.455681818181818,90.06,64,132,62e3e266b613b42937358b21,Second,27,43,F,0.33136758207070693
77,27,D_exp2,0.3222482638888889,0.643181818181818,77.13,108,133,62e3e266b613b42937358b21,Second,27,43,F,0.3209335542929291
77,17,C_exp2,0.14158854166666668,0.472727272727273,89.16,67,134,62e3e266b613b42937358b21,Second,27,43,F,0.3311387310606063
77,5,A_exp2,0.04999999999999999,0.268181818181818,97.09,17,137,62e3e266b613b42937358b21,Second,27,43,F,0.21818181818181803
77,11,C_exp2,0.10226562500000004,0.370454545454545,93.87,43,138,62e3e266b613b42937358b21,Second,27,43,F,0.26818892045454495
77,43,B_exp2,0.9224131944444444,0.915909090909091,40.18,170,139,62e3e266b613b42937358b21,Second,27,43,F,-0.006504103535353356
77,2,A_exp2,0.02253906249999998,0.217045454545455,98.2,5,140,62e3e266b613b42937358b21,Second,27,43,F,0.19450639204545503
77,37,A_exp2,0.8312760416666667,0.813636363636363,58.43,145,141,62e3e266b613b42937358b21,Second,27,43,F,-0.01763967803030364
77,24,D_exp2,0.35625868055555554,0.592045454545455,81.33,96,142,62e3e266b613b42937358b21,Second,27,43,F,0.23578677398989945
77,39,C_exp2,0.7144227430555555,0.847727272727273,53.22,155,143,62e3e266b613b42937358b21,Second,27,43,F,0.13330452967171746
77,41,A_exp2,0.7980946180555555,0.881818181818182,47.24,161,144,62e3e266b613b42937358b21,Second,27,43,F,0.08372356376262646
77,17,B_exp2,0.28793836805555556,0.472727272727273,89.16,66,145,62e3e266b613b42937358b21,Second,27,43,F,0.18478890467171744
77,25,B_exp2,0.4806987847222222,0.609090909090909,80.05,98,146,62e3e266b613b42937358b21,Second,27,43,F,0.1283921243686868
77,5,C_exp2,0.13026041666666666,0.268181818181818,97.09,19,147,62e3e266b613b42937358b21,Second,27,43,F,0.13792140151515137
77,8,A_exp2,0.0538064236111111,0.319318181818182,95.69,29,148,62e3e266b613b42937358b21,Second,27,43,F,0.2655117582070709
77,7,C_exp2,0.03787760416666669,0.302272727272727,96.21,27,149,62e3e266b613b42937358b21,Second,27,43,F,0.26439512310606034
77,31,A_exp2,0.5577430555555556,0.711363636363636,70.76,121,150,62e3e266b613b42937358b21,Second,27,43,F,0.1536205808080804
77,24,B_exp2,0.23388888888888887,0.592045454545455,81.33,94,151,62e3e266b613b42937358b21,Second,27,43,F,0.3581565656565661
77,39,B_exp2,0.7796831597222222,0.847727272727273,53.22,154,152,62e3e266b613b42937358b21,Second,27,43,F,0.06804411300505075
77,1,D_exp2,0.2120225694444444,0.2,98.47,4,153,62e3e266b613b42937358b21,Second,27,43,F,-0.012022569444444381
77,34,D_exp2,0.6875520833333333,0.7625,65.09,136,154,62e3e266b613b42937358b21,Second,27,43,F,0.07494791666666667
77,23,A_exp2,0.5484331597222222,0.575,82.61,89,155,62e3e266b613b42937358b21,Second,27,43,F,0.02656684027777778
77,15,D_exp2,0.3424565972222222,0.438636363636364,90.98,60,156,62e3e266b613b42937358b21,Second,27,43,F,0.09617976641414178
77,39,A_exp2,0.8126866319444445,0.847727272727273,53.22,153,157,62e3e266b613b42937358b21,Second,27,43,F,0.035040640782828536
77,18,D_exp2,0.2223394097222222,0.489772727272727,88.21,72,158,62e3e266b613b42937358b21,Second,27,43,F,0.2674333175505048
77,45,D_exp2,0.9607465277777778,0.95,31.29,180,159,62e3e266b613b42937358b21,Second,27,43,F,-0.010746527777777848
77,29,D_exp2,0.6858420138888889,0.677272727272727,74.03,116,160,62e3e266b613b42937358b21,Second,27,43,F,-0.008569286616161853
77,5,D_exp2,0.1853342013888889,0.268181818181818,97.09,20,161,62e3e266b613b42937358b21,Second,27,43,F,0.08284761679292912
77,41,D_exp2,0.9109201388888888,0.881818181818182,47.24,164,162,62e3e266b613b42937358b21,Second,27,43,F,-0.02910195707070684
77,43,A_exp2,0.8403732638888889,0.915909090909091,40.18,169,163,62e3e266b613b42937358b21,Second,27,43,F,0.07553582702020212
77,22,C_exp2,0.3530512152777778,0.557954545454545,83.86,87,164,62e3e266b613b42937358b21,Second,27,43,F,0.20490333017676726
77,27,A_exp2,0.7623307291666667,0.643181818181818,77.13,105,165,62e3e266b613b42937358b21,Second,27,43,F,-0.1191489109848487
77,3,C_exp2,0.04677517361111111,0.234090909090909,97.85,11,166,62e3e266b613b42937358b21,Second,27,43,F,0.18731573547979788
77,9,C_exp2,0.27056423611111113,0.336363636363636,95.17,35,167,62e3e266b613b42937358b21,Second,27,43,F,0.06579940025252484
77,6,C_exp2,0.275078125,0.285227272727273,96.65,23,168,62e3e266b613b42937358b21,Second,27,43,F,0.010149147727272989
77,14,B_exp2,0.2762065972222222,0.421590909090909,91.77,54,169,62e3e266b613b42937358b21,Second,27,43,F,0.14538431186868683
77,32,B_exp2,0.631796875,0.728409090909091,68.93,126,170,62e3e266b613b42937358b21,Second,27,43,F,0.09661221590909097
77,28,C_exp2,0.3729600694444444,0.660227272727273,75.63,111,171,62e3e266b613b42937358b21,Second,27,43,F,0.2872672032828286
77,43,C_exp2,0.7044921875,0.915909090909091,40.18,171,172,62e3e266b613b42937358b21,Second,27,43,F,0.21141690340909103
77,19,D_exp2,0.4107421875,0.506818181818182,87.29,76,173,62e3e266b613b42937358b21,Second,27,43,F,0.09607599431818192
77,40,D_exp2,0.9276605902777776,0.864772727272727,50.34,160,175,62e3e266b613b42937358b21,Second,27,43,F,-0.06288786300505056
77,20,A_exp2,0.661232638888889,0.523863636363636,86.18,77,176,62e3e266b613b42937358b21,Second,27,43,F,-0.13736900252525297
77,21,B_exp2,0.2820963541666667,0.540909090909091,85.06,82,177,62e3e266b613b42937358b21,Second,27,43,F,0.25881273674242433
77,45,C_exp2,0.9171875,0.95,31.29,179,178,62e3e266b613b42937358b21,Second,27,43,F,0.03281249999999991
77,29,A_exp2,0.8531423611111111,0.677272727272727,74.03,113,179,62e3e266b613b42937358b21,Second,27,43,F,-0.17586963383838405
77,16,A_exp2,0.7867881944444444,0.455681818181818,90.06,61,180,62e3e266b613b42937358b21,Second,27,43,F,-0.33110637626262635
77,18,A_exp2,0.6375564236111111,0.489772727272727,88.21,69,181,62e3e266b613b42937358b21,Second,27,43,F,-0.14778369633838406
77,35,B_exp2,0.8060590277777777,0.779545454545455,62.96,138,182,62e3e266b613b42937358b21,Second,27,43,F,-0.02651357323232273
77,12,D_exp2,0.5870269097222223,0.3875,93.21,48,183,62e3e266b613b42937358b21,Second,27,43,F,-0.19952690972222226
77,30,B_exp2,0.6883029513888889,0.694318181818182,72.45,118,184,62e3e266b613b42937358b21,Second,27,43,F,0.006015230429293084
77,37,D_exp2,0.9102256944444445,0.813636363636363,58.43,148,185,62e3e266b613b42937358b21,Second,27,43,F,-0.09658933080808141
78,40,B_exp2,0.7166666666666667,0.864772727272727,50.34,158,0,62e3e35ca6935ff1197893f0,First,20,21,M,0.14810606060606035
78,30,A_exp2,0.5444444444444444,0.694318181818182,72.45,117,1,62e3e35ca6935ff1197893f0,First,20,21,M,0.14987373737373755
78,28,D_exp2,0.3925925925925926,0.660227272727273,75.63,112,2,62e3e35ca6935ff1197893f0,First,20,21,M,0.2676346801346804
78,20,B_exp2,0.22962962962962963,0.523863636363636,86.18,78,3,62e3e35ca6935ff1197893f0,First,20,21,M,0.29423400673400635
78,7,A_exp2,0.0796296296296296,0.302272727272727,96.21,25,4,62e3e35ca6935ff1197893f0,First,20,21,M,0.22264309764309742
78,4,C_exp2,0.06111111111111111,0.251136363636364,97.45,15,5,62e3e35ca6935ff1197893f0,First,20,21,M,0.19002525252525287
78,34,D_exp2,0.4981481481481482,0.7625,65.09,136,6,62e3e35ca6935ff1197893f0,First,20,21,M,0.2643518518518518
78,34,A_exp2,0.5203703703703704,0.7625,65.09,133,7,62e3e35ca6935ff1197893f0,First,20,21,M,0.24212962962962958
78,16,C_exp2,0.03518518518518521,0.455681818181818,90.06,63,8,62e3e35ca6935ff1197893f0,First,20,21,M,0.4204966329966328
78,17,C_exp2,0.10555555555555556,0.472727272727273,89.16,67,9,62e3e35ca6935ff1197893f0,First,20,21,M,0.3671717171717174
78,9,D_exp2,0.07777777777777778,0.336363636363636,95.17,36,10,62e3e35ca6935ff1197893f0,First,20,21,M,0.2585858585858582
78,35,D_exp2,0.6685185185185185,0.779545454545455,62.96,140,11,62e3e35ca6935ff1197893f0,First,20,21,M,0.11102693602693647
78,19,A_exp2,0.18518518518518515,0.506818181818182,87.29,73,12,62e3e35ca6935ff1197893f0,First,20,21,M,0.3216329966329968
78,15,D_exp2,0.28703703703703703,0.438636363636364,90.98,60,13,62e3e35ca6935ff1197893f0,First,20,21,M,0.15159932659932696
78,7,B_exp2,0.1425925925925926,0.302272727272727,96.21,26,14,62e3e35ca6935ff1197893f0,First,20,21,M,0.15968013468013442
78,9,C_exp2,0.10185185185185186,0.336363636363636,95.17,35,15,62e3e35ca6935ff1197893f0,First,20,21,M,0.23451178451178412
78,20,A_exp2,0.09444444444444444,0.523863636363636,86.18,77,16,62e3e35ca6935ff1197893f0,First,20,21,M,0.42941919191919153
78,22,A_exp2,0.14444444444444443,0.557954545454545,83.86,85,17,62e3e35ca6935ff1197893f0,First,20,21,M,0.4135101010101006
78,40,A_exp2,0.8314814814814815,0.864772727272727,50.34,157,18,62e3e35ca6935ff1197893f0,First,20,21,M,0.03329124579124554
78,41,C_exp2,0.7537037037037038,0.881818181818182,47.24,163,19,62e3e35ca6935ff1197893f0,First,20,21,M,0.12811447811447818
78,16,A_exp2,0.1925925925925926,0.455681818181818,90.06,61,20,62e3e35ca6935ff1197893f0,First,20,21,M,0.26308922558922543
78,6,A_exp2,0.17777777777777776,0.285227272727273,96.65,21,22,62e3e35ca6935ff1197893f0,First,20,21,M,0.10744949494949524
78,39,B_exp2,0.7314814814814815,0.847727272727273,53.22,154,23,62e3e35ca6935ff1197893f0,First,20,21,M,0.11624579124579149
78,14,B_exp2,0.10370370370370369,0.421590909090909,91.77,54,24,62e3e35ca6935ff1197893f0,First,20,21,M,0.31788720538720533
78,26,C_exp2,0.15370370370370373,0.626136363636364,78.63,103,25,62e3e35ca6935ff1197893f0,First,20,21,M,0.4724326599326603
78,6,B_exp2,0.0851851851851852,0.285227272727273,96.65,22,26,62e3e35ca6935ff1197893f0,First,20,21,M,0.2000420875420878
78,13,A_exp2,0.112962962962963,0.404545454545455,92.49,49,27,62e3e35ca6935ff1197893f0,First,20,21,M,0.291582491582492
78,2,B_exp2,0.12037037037037036,0.217045454545455,98.2,6,28,62e3e35ca6935ff1197893f0,First,20,21,M,0.09667508417508465
78,42,D_exp2,0.9111111111111112,0.898863636363636,43.85,168,29,62e3e35ca6935ff1197893f0,First,20,21,M,-0.012247474747475229
78,10,D_exp2,0.1648148148148148,0.353409090909091,94.56,40,30,62e3e35ca6935ff1197893f0,First,20,21,M,0.1885942760942762
78,19,C_exp2,0.06666666666666665,0.506818181818182,87.29,75,31,62e3e35ca6935ff1197893f0,First,20,21,M,0.4401515151515153
78,42,C_exp2,0.8111111111111111,0.898863636363636,43.85,167,32,62e3e35ca6935ff1197893f0,First,20,21,M,0.08775252525252486
78,27,B_exp2,0.2111111111111111,0.643181818181818,77.13,106,33,62e3e35ca6935ff1197893f0,First,20,21,M,0.4320707070707068
78,15,A_exp2,0.1925925925925926,0.438636363636364,90.98,57,34,62e3e35ca6935ff1197893f0,First,20,21,M,0.2460437710437714
78,6,C_exp2,0.1111111111111111,0.285227272727273,96.65,23,35,62e3e35ca6935ff1197893f0,First,20,21,M,0.1741161616161619
78,32,C_exp2,0.15000000000000002,0.728409090909091,68.93,127,36,62e3e35ca6935ff1197893f0,First,20,21,M,0.578409090909091
78,29,B_exp2,0.412962962962963,0.677272727272727,74.03,114,37,62e3e35ca6935ff1197893f0,First,20,21,M,0.26430976430976405
78,21,D_exp2,0.3592592592592593,0.540909090909091,85.06,84,38,62e3e35ca6935ff1197893f0,First,20,21,M,0.18164983164983173
78,36,D_exp2,0.6370370370370371,0.796590909090909,60.8,144,39,62e3e35ca6935ff1197893f0,First,20,21,M,0.15955387205387195
78,12,D_exp2,0.17777777777777776,0.3875,93.21,48,40,62e3e35ca6935ff1197893f0,First,20,21,M,0.20972222222222225
78,37,B_exp2,0.575925925925926,0.813636363636363,58.43,146,41,62e3e35ca6935ff1197893f0,First,20,21,M,0.2377104377104371
78,12,B_exp2,0.20370370370370372,0.3875,93.21,46,42,62e3e35ca6935ff1197893f0,First,20,21,M,0.1837962962962963
78,24,D_exp2,0.3944444444444444,0.592045454545455,81.33,96,43,62e3e35ca6935ff1197893f0,First,20,21,M,0.1976010101010106
78,43,A_exp2,0.8888888888888888,0.915909090909091,40.18,169,44,62e3e35ca6935ff1197893f0,First,20,21,M,0.027020202020202166
78,27,C_exp2,0.4055555555555555,0.643181818181818,77.13,107,45,62e3e35ca6935ff1197893f0,First,20,21,M,0.23762626262626246
78,28,B_exp2,0.4148148148148148,0.660227272727273,75.63,110,46,62e3e35ca6935ff1197893f0,First,20,21,M,0.2454124579124582
78,31,B_exp2,0.6092592592592593,0.711363636363636,70.76,122,47,62e3e35ca6935ff1197893f0,First,20,21,M,0.1021043771043767
78,9,B_exp2,0.2740740740740741,0.336363636363636,95.17,34,48,62e3e35ca6935ff1197893f0,First,20,21,M,0.062289562289561895
78,2,A_exp2,0.15000000000000002,0.217045454545455,98.2,5,49,62e3e35ca6935ff1197893f0,First,20,21,M,0.06704545454545499
78,8,B_exp2,0.1351851851851852,0.319318181818182,95.69,30,50,62e3e35ca6935ff1197893f0,First,20,21,M,0.1841329966329968
78,31,A_exp2,0.5777777777777777,0.711363636363636,70.76,121,51,62e3e35ca6935ff1197893f0,First,20,21,M,0.13358585858585825
78,42,B_exp2,0.8240740740740741,0.898863636363636,43.85,166,52,62e3e35ca6935ff1197893f0,First,20,21,M,0.0747895622895619
78,10,C_exp2,0.12222222222222225,0.353409090909091,94.56,39,53,62e3e35ca6935ff1197893f0,First,20,21,M,0.23118686868686877
78,4,D_exp2,0.2148148148148148,0.251136363636364,97.45,16,54,62e3e35ca6935ff1197893f0,First,20,21,M,0.0363215488215492
78,43,B_exp2,0.8129629629629629,0.915909090909091,40.18,170,55,62e3e35ca6935ff1197893f0,First,20,21,M,0.10294612794612812
78,21,A_exp2,0.5462962962962963,0.540909090909091,85.06,81,56,62e3e35ca6935ff1197893f0,First,20,21,M,-0.005387205387205274
78,30,B_exp2,0.5185185185185185,0.694318181818182,72.45,118,57,62e3e35ca6935ff1197893f0,First,20,21,M,0.17579966329966346
78,8,C_exp2,0.2444444444444445,0.319318181818182,95.69,31,58,62e3e35ca6935ff1197893f0,First,20,21,M,0.07487373737373751
78,30,D_exp2,0.5222222222222223,0.694318181818182,72.45,120,59,62e3e35ca6935ff1197893f0,First,20,21,M,0.1720959595959597
78,18,B_exp2,0.25555555555555554,0.489772727272727,88.21,70,60,62e3e35ca6935ff1197893f0,First,20,21,M,0.2342171717171715
78,1,D_exp2,0.2148148148148148,0.2,98.47,4,61,62e3e35ca6935ff1197893f0,First,20,21,M,-0.01481481481481478
78,33,B_exp2,0.23703703703703705,0.745454545454545,67.07,130,62,62e3e35ca6935ff1197893f0,First,20,21,M,0.508417508417508
78,7,D_exp2,0.17222222222222222,0.302272727272727,96.21,28,63,62e3e35ca6935ff1197893f0,First,20,21,M,0.1300505050505048
78,26,A_exp2,0.3277777777777778,0.626136363636364,78.63,101,64,62e3e35ca6935ff1197893f0,First,20,21,M,0.29835858585858627
78,14,D_exp2,0.29814814814814816,0.421590909090909,91.77,56,65,62e3e35ca6935ff1197893f0,First,20,21,M,0.12344276094276085
78,44,D_exp2,0.9,0.932954545454545,36.02,176,66,62e3e35ca6935ff1197893f0,First,20,21,M,0.032954545454545014
78,23,D_exp2,0.2777777777777778,0.575,82.61,92,68,62e3e35ca6935ff1197893f0,First,20,21,M,0.29722222222222217
78,17,D_exp2,0.28888888888888886,0.472727272727273,89.16,68,69,62e3e35ca6935ff1197893f0,First,20,21,M,0.18383838383838413
78,36,A_exp2,0.5703703703703704,0.796590909090909,60.8,141,70,62e3e35ca6935ff1197893f0,First,20,21,M,0.2262205387205386
78,44,B_exp2,0.8870370370370371,0.932954545454545,36.02,174,71,62e3e35ca6935ff1197893f0,First,20,21,M,0.04591750841750797
78,17,B_exp2,0.2851851851851852,0.472727272727273,89.16,66,72,62e3e35ca6935ff1197893f0,First,20,21,M,0.1875420875420878
78,22,C_exp2,0.18888888888888888,0.557954545454545,83.86,87,73,62e3e35ca6935ff1197893f0,First,20,21,M,0.36906565656565615
78,6,D_exp2,0.18518518518518515,0.285227272727273,96.65,24,74,62e3e35ca6935ff1197893f0,First,20,21,M,0.10004208754208785
78,29,D_exp2,0.26296296296296295,0.677272727272727,74.03,116,75,62e3e35ca6935ff1197893f0,First,20,21,M,0.4143097643097641
78,11,D_exp2,0.2203703703703704,0.370454545454545,93.87,44,76,62e3e35ca6935ff1197893f0,First,20,21,M,0.15008417508417457
78,33,C_exp2,0.30925925925925923,0.745454545454545,67.07,131,78,62e3e35ca6935ff1197893f0,First,20,21,M,0.4361952861952858
78,22,D_exp2,0.2777777777777778,0.557954545454545,83.86,88,79,62e3e35ca6935ff1197893f0,First,20,21,M,0.28017676767676725
78,35,B_exp2,0.3351851851851852,0.779545454545455,62.96,138,80,62e3e35ca6935ff1197893f0,First,20,21,M,0.4443602693602698
78,31,C_exp2,0.24074074074074076,0.711363636363636,70.76,123,81,62e3e35ca6935ff1197893f0,First,20,21,M,0.4706228956228952
78,27,A_exp2,0.3055555555555556,0.643181818181818,77.13,105,82,62e3e35ca6935ff1197893f0,First,20,21,M,0.3376262626262624
78,39,C_exp2,0.3074074074074074,0.847727272727273,53.22,155,83,62e3e35ca6935ff1197893f0,First,20,21,M,0.5403198653198655
78,32,A_exp2,0.35185185185185186,0.728409090909091,68.93,125,84,62e3e35ca6935ff1197893f0,First,20,21,M,0.37655723905723915
78,27,D_exp2,0.32037037037037036,0.643181818181818,77.13,108,85,62e3e35ca6935ff1197893f0,First,20,21,M,0.3228114478114476
78,30,C_exp2,0.26296296296296295,0.694318181818182,72.45,119,86,62e3e35ca6935ff1197893f0,First,20,21,M,0.431355218855219
78,22,B_exp2,0.3111111111111111,0.557954545454545,83.86,86,87,62e3e35ca6935ff1197893f0,First,20,21,M,0.24684343434343392
78,3,A_exp2,0.2537037037037037,0.234090909090909,97.85,9,88,62e3e35ca6935ff1197893f0,First,20,21,M,-0.01961279461279472
78,4,B_exp2,0.2277777777777778,0.251136363636364,97.45,14,89,62e3e35ca6935ff1197893f0,First,20,21,M,0.02335858585858619
78,32,B_exp2,0.3148148148148148,0.728409090909091,68.93,126,90,62e3e35ca6935ff1197893f0,First,20,21,M,0.4135942760942762
78,45,B_exp2,0.9685185185185186,0.95,31.29,178,91,62e3e35ca6935ff1197893f0,First,20,21,M,-0.0185185185185186
78,34,C_exp2,0.4481481481481482,0.7625,65.09,135,92,62e3e35ca6935ff1197893f0,First,20,21,M,0.31435185185185177
78,5,C_exp2,0.23148148148148143,0.268181818181818,97.09,19,93,62e3e35ca6935ff1197893f0,Second,20,21,M,0.036700336700336594
78,26,B_exp2,0.4666666666666667,0.626136363636364,78.63,102,94,62e3e35ca6935ff1197893f0,Second,20,21,M,0.15946969696969737
78,35,A_exp2,0.674074074074074,0.779545454545455,62.96,137,95,62e3e35ca6935ff1197893f0,Second,20,21,M,0.10547138047138094
78,15,B_exp2,0.4148148148148148,0.438636363636364,90.98,58,96,62e3e35ca6935ff1197893f0,Second,20,21,M,0.023821548821549188
78,24,A_exp2,0.4222222222222222,0.592045454545455,81.33,93,97,62e3e35ca6935ff1197893f0,Second,20,21,M,0.16982323232323276
78,41,B_exp2,0.7907407407407407,0.881818181818182,47.24,162,98,62e3e35ca6935ff1197893f0,Second,20,21,M,0.0910774410774412
78,38,D_exp2,0.7648148148148148,0.830681818181818,55.96,152,99,62e3e35ca6935ff1197893f0,Second,20,21,M,0.06586700336700313
78,41,A_exp2,0.787037037037037,0.881818181818182,47.24,161,100,62e3e35ca6935ff1197893f0,Second,20,21,M,0.09478114478114497
78,25,A_exp2,0.6074074074074074,0.609090909090909,80.05,97,101,62e3e35ca6935ff1197893f0,Second,20,21,M,0.0016835016835016203
78,23,B_exp2,0.6222222222222222,0.575,82.61,90,102,62e3e35ca6935ff1197893f0,Second,20,21,M,-0.047222222222222276
78,26,D_exp2,0.45925925925925926,0.626136363636364,78.63,104,103,62e3e35ca6935ff1197893f0,Second,20,21,M,0.1668771043771048
78,28,A_exp2,0.43703703703703706,0.660227272727273,75.63,109,104,62e3e35ca6935ff1197893f0,Second,20,21,M,0.22319023569023594
78,32,D_exp2,0.6129629629629629,0.728409090909091,68.93,128,105,62e3e35ca6935ff1197893f0,Second,20,21,M,0.11544612794612807
78,38,A_exp2,0.7796296296296297,0.830681818181818,55.96,149,106,62e3e35ca6935ff1197893f0,Second,20,21,M,0.05105218855218829
78,23,A_exp2,0.5907407407407408,0.575,82.61,89,107,62e3e35ca6935ff1197893f0,Second,20,21,M,-0.015740740740740833
78,43,C_exp2,0.8444444444444444,0.915909090909091,40.18,171,108,62e3e35ca6935ff1197893f0,Second,20,21,M,0.07146464646464656
78,14,A_exp2,0.6444444444444444,0.421590909090909,91.77,53,109,62e3e35ca6935ff1197893f0,Second,20,21,M,-0.22285353535353536
78,16,D_exp2,0.6018518518518519,0.455681818181818,90.06,64,110,62e3e35ca6935ff1197893f0,Second,20,21,M,-0.14617003367003384
