participant,item,condition,slider.response,my_rs,total_residuals,unique_item_no,session,trials.thisN,half,literacy,age_textbox.text,gender_slider.response,dot_pitch,res_width,VT_no_correct,difference
6,2,D_exp3,0.075925954,0.217954545,98.2,8,640f3ac4224f3464655763ad,0,First,15,25,F,0.339328125,1280,6,0.14202859099999998
6,7,C_exp3,0.062037065,0.307727273,96.03,27,640f3ac4224f3464655763ad,1,First,15,25,F,0.339328125,1280,6,0.24569020800000002
6,5,D_exp3,0.067592621,0.271818182,96.99,20,640f3ac4224f3464655763ad,2,First,15,25,F,0.339328125,1280,6,0.204225561
6,43,C_exp3,0.538888889,0.954090909,30.04,171,640f3ac4224f3464655763ad,3,First,15,25,F,0.339328125,1280,6,0.41520202000000006
6,31,D_exp3,0.210185199,0.738636364,67.86,124,640f3ac4224f3464655763ad,4,First,15,25,F,0.339328125,1280,6,0.528451165
6,20,D_exp3,0.067592621,0.541136364,85.04,80,640f3ac4224f3464655763ad,5,First,15,25,F,0.339328125,1280,6,0.47354374299999996
6,17,D_exp3,0.101851866,0.487272727,88.33,68,640f3ac4224f3464655763ad,6,First,15,25,F,0.339328125,1280,6,0.385420861
6,2,A_exp3,0.039814843,0.217954545,98.2,5,640f3ac4224f3464655763ad,7,First,15,25,F,0.339328125,1280,6,0.178139702
6,27,A_exp3,0.489814843,0.666818182,75.05,105,640f3ac4224f3464655763ad,8,First,15,25,F,0.339328125,1280,6,0.17700333899999998
6,1,B_exp3,0.179629644,0.2,98.47,2,640f3ac4224f3464655763ad,9,First,15,25,F,0.339328125,1280,6,0.020370356000000006
6,34,C_exp3,0.419444444,0.7925,61.29,135,640f3ac4224f3464655763ad,10,First,15,25,F,0.339328125,1280,6,0.37305555599999995
6,36,A_exp3,0.714814843,0.828409091,56.22,141,640f3ac4224f3464655763ad,11,First,15,25,F,0.339328125,1280,6,0.11359424800000006
6,45,D_exp3,0.862037065,0.99,14.13,180,640f3ac4224f3464655763ad,12,First,15,25,F,0.339328125,1280,6,0.127962935
6,16,C_exp3,0.149074088,0.469318182,89.4,63,640f3ac4224f3464655763ad,13,First,15,25,F,0.339328125,1280,6,0.320244094
6,15,B_exp3,0.132407422,0.451363636,90.29,58,640f3ac4224f3464655763ad,14,First,15,25,F,0.339328125,1280,6,0.318956214
6,11,D_exp3,0.152777778,0.379545455,93.55,44,640f3ac4224f3464655763ad,15,First,15,25,F,0.339328125,1280,6,0.22676767699999997
6,17,B_exp3,0.208333333,0.487272727,88.33,66,640f3ac4224f3464655763ad,16,First,15,25,F,0.339328125,1280,6,0.278939394
6,36,D_exp3,0.377777778,0.828409091,56.22,144,640f3ac4224f3464655763ad,17,First,15,25,F,0.339328125,1280,6,0.45063131300000003
6,43,B_exp3,0.814814843,0.954090909,30.04,170,640f3ac4224f3464655763ad,18,First,15,25,F,0.339328125,1280,6,0.1392760660000001
6,43,D_exp3,0.860185242,0.954090909,30.04,172,640f3ac4224f3464655763ad,19,First,15,25,F,0.339328125,1280,6,0.09390566700000003
6,34,A_exp3,0.703703732,0.7925,61.29,133,640f3ac4224f3464655763ad,20,First,15,25,F,0.339328125,1280,6,0.08879626799999996
6,24,C_exp3,0.253703732,0.612954545,79.66,95,640f3ac4224f3464655763ad,21,First,15,25,F,0.339328125,1280,6,0.359250813
6,32,A_exp3,0.503703732,0.756590909,65.73,125,640f3ac4224f3464655763ad,22,First,15,25,F,0.339328125,1280,6,0.2528871770000001
6,29,D_exp3,0.14629631,0.702727273,71.6,116,640f3ac4224f3464655763ad,23,First,15,25,F,0.339328125,1280,6,0.5564309630000001
6,11,A_exp3,0.073148176,0.379545455,93.55,41,640f3ac4224f3464655763ad,24,First,15,25,F,0.339328125,1280,6,0.30639727899999997
6,24,D_exp3,0.253703732,0.612954545,79.66,96,640f3ac4224f3464655763ad,25,First,15,25,F,0.339328125,1280,6,0.359250813
6,35,D_exp3,0.477777778,0.810454545,58.87,140,640f3ac4224f3464655763ad,26,First,15,25,F,0.339328125,1280,6,0.33267676700000004
6,45,B_exp3,0.947222222,0.99,14.13,178,640f3ac4224f3464655763ad,27,First,15,25,F,0.339328125,1280,6,0.042777778000000044
6,39,D_exp3,0.632407464,0.882272727,47.19,156,640f3ac4224f3464655763ad,28,First,15,25,F,0.339328125,1280,6,0.249865263
6,42,C_exp3,0.726851908,0.936136364,35.25,167,640f3ac4224f3464655763ad,29,First,15,25,F,0.339328125,1280,6,0.209284456
6,5,B_exp3,0.155555556,0.271818182,96.99,18,640f3ac4224f3464655763ad,30,First,15,25,F,0.339328125,1280,6,0.11626262600000001
6,26,A_exp3,0.364814843,0.648863636,76.62,101,640f3ac4224f3464655763ad,31,First,15,25,F,0.339328125,1280,6,0.28404879299999997
6,40,A_exp3,0.700925954,0.900227273,43.56,157,640f3ac4224f3464655763ad,32,First,15,25,F,0.339328125,1280,6,0.19930131900000003
6,8,A_exp3,0.069444444,0.325681818,95.52,29,640f3ac4224f3464655763ad,33,First,15,25,F,0.339328125,1280,6,0.256237374
6,26,B_exp3,0.208333333,0.648863636,76.62,102,640f3ac4224f3464655763ad,34,First,15,25,F,0.339328125,1280,6,0.44053030299999996
6,3,B_exp3,0.129629644,0.235909091,97.87,10,640f3ac4224f3464655763ad,35,First,15,25,F,0.339328125,1280,6,0.106279447
6,2,B_exp3,0.060185199,0.217954545,98.2,6,640f3ac4224f3464655763ad,36,First,15,25,F,0.339328125,1280,6,0.157769346
6,45,C_exp3,0.944444444,0.99,14.13,179,640f3ac4224f3464655763ad,37,First,15,25,F,0.339328125,1280,6,0.04555555599999994
6,3,A_exp3,0.158333333,0.235909091,97.87,9,640f3ac4224f3464655763ad,38,First,15,25,F,0.339328125,1280,6,0.077575758
6,36,C_exp3,0.382407464,0.828409091,56.22,143,640f3ac4224f3464655763ad,39,First,15,25,F,0.339328125,1280,6,0.44600162700000007
6,30,D_exp3,0.311111111,0.720681818,69.76,120,640f3ac4224f3464655763ad,40,First,15,25,F,0.339328125,1280,6,0.409570707
6,1,C_exp3,0.092592621,0.2,98.47,3,640f3ac4224f3464655763ad,41,First,15,25,F,0.339328125,1280,6,0.10740737900000001
6,40,D_exp3,0.579629686,0.900227273,43.56,160,640f3ac4224f3464655763ad,42,First,15,25,F,0.339328125,1280,6,0.3205975870000001
6,28,C_exp3,0.278703732,0.684772727,73.36,111,640f3ac4224f3464655763ad,43,First,15,25,F,0.339328125,1280,6,0.40606899500000004
6,4,D_exp3,0.050925954,0.253863636,97.45,16,640f3ac4224f3464655763ad,44,First,15,25,F,0.339328125,1280,6,0.202937682
6,9,C_exp3,0.050925954,0.343636364,94.9,35,640f3ac4224f3464655763ad,45,First,15,25,F,0.339328125,1280,6,0.29271041000000003
6,44,A_exp3,0.93148151,0.972045455,23.65,173,640f3ac4224f3464655763ad,46,First,15,25,F,0.339328125,1280,6,0.040563944999999935
6,31,C_exp3,0.247222222,0.738636364,67.86,123,640f3ac4224f3464655763ad,47,First,15,25,F,0.339328125,1280,6,0.491414142
6,21,D_exp3,0.177777778,0.559090909,83.77,84,640f3ac4224f3464655763ad,48,First,15,25,F,0.339328125,1280,6,0.381313131
6,18,D_exp3,0.088888889,0.505227273,87.36,72,640f3ac4224f3464655763ad,49,First,15,25,F,0.339328125,1280,6,0.416338384
6,45,A_exp3,0.943518575,0.99,14.13,177,640f3ac4224f3464655763ad,50,First,15,25,F,0.339328125,1280,6,0.046481424999999965
6,37,D_exp3,0.58148151,0.846363636,53.4,148,640f3ac4224f3464655763ad,51,First,15,25,F,0.339328125,1280,6,0.26488212599999994
6,5,A_exp3,0.048148176,0.271818182,96.99,17,640f3ac4224f3464655763ad,52,First,15,25,F,0.339328125,1280,6,0.22367000600000003
6,4,B_exp3,0.048148176,0.253863636,97.45,14,640f3ac4224f3464655763ad,53,First,15,25,F,0.339328125,1280,6,0.20571546000000002
6,41,D_exp3,0.617592621,0.918181818,39.66,164,640f3ac4224f3464655763ad,54,First,15,25,F,0.339328125,1280,6,0.300589197
6,6,B_exp3,0.154629644,0.289772727,96.58,22,640f3ac4224f3464655763ad,55,First,15,25,F,0.339328125,1280,6,0.135143083
6,30,A_exp3,0.801851908,0.720681818,69.76,117,640f3ac4224f3464655763ad,56,First,15,25,F,0.339328125,1280,6,-0.08117008999999997
6,42,A_exp3,0.880555556,0.936136364,35.25,165,640f3ac4224f3464655763ad,57,First,15,25,F,0.339328125,1280,6,0.05558080799999998
6,19,B_exp3,0.262962977,0.523181818,86.21,74,640f3ac4224f3464655763ad,58,First,15,25,F,0.339328125,1280,6,0.260218841
6,12,C_exp3,0.039814843,0.3975,92.82,47,640f3ac4224f3464655763ad,59,First,15,25,F,0.339328125,1280,6,0.35768515700000003
6,35,B_exp3,0.643518575,0.810454545,58.87,138,640f3ac4224f3464655763ad,60,First,15,25,F,0.339328125,1280,6,0.16693597000000004
6,9,D_exp3,0.032407422,0.343636364,94.9,36,640f3ac4224f3464655763ad,61,First,15,25,F,0.339328125,1280,6,0.311228942
6,11,C_exp3,0.012962977,0.379545455,93.55,43,640f3ac4224f3464655763ad,63,First,15,25,F,0.339328125,1280,6,0.366582478
6,42,B_exp3,0.917592621,0.936136364,35.25,166,640f3ac4224f3464655763ad,64,First,15,25,F,0.339328125,1280,6,0.018543742999999946
6,21,A_exp3,0.689814843,0.559090909,83.77,81,640f3ac4224f3464655763ad,65,First,15,25,F,0.339328125,1280,6,-0.13072393399999993
6,27,B_exp3,0.580555556,0.666818182,75.05,106,640f3ac4224f3464655763ad,66,First,15,25,F,0.339328125,1280,6,0.08626262600000001
6,14,D_exp3,0.023148176,0.433409091,91.2,56,640f3ac4224f3464655763ad,67,First,15,25,F,0.339328125,1280,6,0.410260915
6,41,C_exp3,0.771296353,0.918181818,39.66,163,640f3ac4224f3464655763ad,68,First,15,25,F,0.339328125,1280,6,0.146885465
6,10,A_exp3,0.368518575,0.361590909,94.23,37,640f3ac4224f3464655763ad,69,First,15,25,F,0.339328125,1280,6,-0.006927665999999999
6,9,A_exp3,0.278703732,0.343636364,94.9,33,640f3ac4224f3464655763ad,70,First,15,25,F,0.339328125,1280,6,0.06493263200000005
6,27,C_exp3,0.382407464,0.666818182,75.05,107,640f3ac4224f3464655763ad,71,First,15,25,F,0.339328125,1280,6,0.284410718
6,25,C_exp3,0.382407464,0.630909091,78.2,99,640f3ac4224f3464655763ad,72,First,15,25,F,0.339328125,1280,6,0.24850162700000006
6,30,B_exp3,0.570370399,0.720681818,69.76,118,640f3ac4224f3464655763ad,73,First,15,25,F,0.339328125,1280,6,0.150311419
6,29,B_exp3,0.646296353,0.702727273,71.6,114,640f3ac4224f3464655763ad,74,First,15,25,F,0.339328125,1280,6,0.05643092000000005
6,22,C_exp3,0.512963019,0.577045455,82.45,87,640f3ac4224f3464655763ad,75,First,15,25,F,0.339328125,1280,6,0.06408243600000008
6,28,D_exp3,0.299074088,0.684772727,73.36,112,640f3ac4224f3464655763ad,76,First,15,25,F,0.339328125,1280,6,0.385698639
6,12,B_exp3,0.192592621,0.3975,92.82,46,640f3ac4224f3464655763ad,77,First,15,25,F,0.339328125,1280,6,0.20490737900000003
6,31,A_exp3,0.7,0.738636364,67.86,121,640f3ac4224f3464655763ad,78,First,15,25,F,0.339328125,1280,6,0.038636364000000034
6,37,C_exp3,0.743518575,0.846363636,53.4,147,640f3ac4224f3464655763ad,79,First,15,25,F,0.339328125,1280,6,0.10284506100000002
6,16,D_exp3,0.10648151,0.469318182,89.4,64,640f3ac4224f3464655763ad,80,First,15,25,F,0.339328125,1280,6,0.36283667199999997
6,23,A_exp3,0.675,0.595,81.13,89,640f3ac4224f3464655763ad,81,First,15,25,F,0.339328125,1280,6,-0.08000000000000007
6,20,A_exp3,0.593518575,0.541136364,85.04,77,640f3ac4224f3464655763ad,82,First,15,25,F,0.339328125,1280,6,-0.05238221100000007
6,40,B_exp3,0.857407464,0.900227273,43.56,158,640f3ac4224f3464655763ad,85,First,15,25,F,0.339328125,1280,6,0.04281980900000004
6,23,B_exp3,0.675925954,0.595,81.13,90,640f3ac4224f3464655763ad,86,First,15,25,F,0.339328125,1280,6,-0.08092595400000002
6,13,D_exp3,0.070370399,0.415454545,91.98,52,640f3ac4224f3464655763ad,87,First,15,25,F,0.339328125,1280,6,0.34508414600000004
6,14,B_exp3,0.404629686,0.433409091,91.2,54,640f3ac4224f3464655763ad,88,First,15,25,F,0.339328125,1280,6,0.028779405000000036
6,22,A_exp3,0.505555556,0.577045455,82.45,85,640f3ac4224f3464655763ad,89,First,15,25,F,0.339328125,1280,6,0.07148989900000002
6,14,C_exp3,0.324074131,0.433409091,91.2,55,640f3ac4224f3464655763ad,90,First,15,25,F,0.339328125,1280,6,0.10933496000000004
6,11,B_exp3,0.426851908,0.379545455,93.55,42,640f3ac4224f3464655763ad,91,First,15,25,F,0.339328125,1280,6,-0.047306453000000026
6,13,A_exp3,0.350925954,0.415454545,91.98,49,640f3ac4224f3464655763ad,92,First,15,25,F,0.339328125,1280,6,0.06452859100000002
6,31,B_exp3,0.725925954,0.738636364,67.86,122,640f3ac4224f3464655763ad,93,Second,15,25,F,0.339328125,1280,6,0.01271040999999995
6,21,C_exp3,0.076851866,0.559090909,83.77,83,640f3ac4224f3464655763ad,94,Second,15,25,F,0.339328125,1280,6,0.48223904300000003
6,28,B_exp3,0.583333333,0.684772727,73.36,110,640f3ac4224f3464655763ad,95,Second,15,25,F,0.339328125,1280,6,0.10143939400000002
6,18,B_exp3,0.440740797,0.505227273,87.36,70,640f3ac4224f3464655763ad,96,Second,15,25,F,0.339328125,1280,6,0.06448647600000001
6,23,C_exp3,0.440740797,0.595,81.13,91,640f3ac4224f3464655763ad,97,Second,15,25,F,0.339328125,1280,6,0.15425920299999996
6,44,D_exp3,0.912963019,0.972045455,23.65,176,640f3ac4224f3464655763ad,98,Second,15,25,F,0.339328125,1280,6,0.05908243599999996
6,20,C_exp3,0.025,0.541136364,85.04,79,640f3ac4224f3464655763ad,99,Second,15,25,F,0.339328125,1280,6,0.516136364
6,28,A_exp3,0.828703732,0.684772727,73.36,109,640f3ac4224f3464655763ad,100,Second,15,25,F,0.339328125,1280,6,-0.143931005
6,23,D_exp3,0.139814843,0.595,81.13,92,640f3ac4224f3464655763ad,101,Second,15,25,F,0.339328125,1280,6,0.45518515699999995
6,39,B_exp3,0.832407464,0.882272727,47.19,154,640f3ac4224f3464655763ad,102,Second,15,25,F,0.339328125,1280,6,0.04986526300000005
6,29,A_exp3,0.872222222,0.702727273,71.6,113,640f3ac4224f3464655763ad,103,Second,15,25,F,0.339328125,1280,6,-0.16949494899999995
6,16,A_exp3,0.323148176,0.469318182,89.4,61,640f3ac4224f3464655763ad,104,Second,15,25,F,0.339328125,1280,6,0.14617000599999996
6,30,C_exp3,0.112037065,0.720681818,69.76,119,640f3ac4224f3464655763ad,105,Second,15,25,F,0.339328125,1280,6,0.608644753
6,16,B_exp3,0.166666667,0.469318182,89.4,62,640f3ac4224f3464655763ad,106,Second,15,25,F,0.339328125,1280,6,0.302651515
6,33,D_exp3,0.276851866,0.774545455,63.57,132,640f3ac4224f3464655763ad,107,Second,15,25,F,0.339328125,1280,6,0.49769358900000005
6,35,C_exp3,0.625925954,0.810454545,58.87,139,640f3ac4224f3464655763ad,108,Second,15,25,F,0.339328125,1280,6,0.18452859100000008
6,17,A_exp3,0.465740797,0.487272727,88.33,65,640f3ac4224f3464655763ad,109,Second,15,25,F,0.339328125,1280,6,0.021531930000000032
6,17,C_exp3,0.099074088,0.487272727,88.33,67,640f3ac4224f3464655763ad,110,Second,15,25,F,0.339328125,1280,6,0.388198639
6,37,A_exp3,0.801851908,0.846363636,53.4,145,640f3ac4224f3464655763ad,111,Second,15,25,F,0.339328125,1280,6,0.04451172800000003
6,15,C_exp3,0.190740755,0.451363636,90.29,59,640f3ac4224f3464655763ad,112,Second,15,25,F,0.339328125,1280,6,0.260622881
6,19,A_exp3,0.474074131,0.523181818,86.21,73,640f3ac4224f3464655763ad,113,Second,15,25,F,0.339328125,1280,6,0.049107686999999955
6,41,A_exp3,0.941666667,0.918181818,39.66,161,640f3ac4224f3464655763ad,114,Second,15,25,F,0.339328125,1280,6,-0.02348484900000003
6,33,C_exp3,0.541666667,0.774545455,63.57,131,640f3ac4224f3464655763ad,115,Second,15,25,F,0.339328125,1280,6,0.23287878800000006
6,27,D_exp3,0.261111111,0.666818182,75.05,108,640f3ac4224f3464655763ad,117,Second,15,25,F,0.339328125,1280,6,0.405707071
6,8,C_exp3,0.148148176,0.325681818,95.52,31,640f3ac4224f3464655763ad,118,Second,15,25,F,0.339328125,1280,6,0.17753364200000002
6,29,C_exp3,0.148148176,0.702727273,71.6,115,640f3ac4224f3464655763ad,119,Second,15,25,F,0.339328125,1280,6,0.5545790970000001
6,7,A_exp3,0.148148176,0.307727273,96.03,25,640f3ac4224f3464655763ad,120,Second,15,25,F,0.339328125,1280,6,0.15957909700000003
6,42,D_exp3,0.773148176,0.936136364,35.25,168,640f3ac4224f3464655763ad,121,Second,15,25,F,0.339328125,1280,6,0.16298818800000003
6,6,D_exp3,0.009259288,0.289772727,96.58,24,640f3ac4224f3464655763ad,123,Second,15,25,F,0.339328125,1280,6,0.28051343900000003
6,33,A_exp3,0.675,0.774545455,63.57,129,640f3ac4224f3464655763ad,124,Second,15,25,F,0.339328125,1280,6,0.099545455
6,38,C_exp3,0.555555556,0.864318182,50.47,151,640f3ac4224f3464655763ad,125,Second,15,25,F,0.339328125,1280,6,0.30876262600000004
6,3,C_exp3,0.045370399,0.235909091,97.87,11,640f3ac4224f3464655763ad,126,Second,15,25,F,0.339328125,1280,6,0.19053869199999998
6,10,C_exp3,0.053703732,0.361590909,94.23,39,640f3ac4224f3464655763ad,127,Second,15,25,F,0.339328125,1280,6,0.307887177
6,36,B_exp3,0.697222222,0.828409091,56.22,142,640f3ac4224f3464655763ad,128,Second,15,25,F,0.339328125,1280,6,0.1311868690000001
6,14,A_exp3,0.552777778,0.433409091,91.2,53,640f3ac4224f3464655763ad,129,Second,15,25,F,0.339328125,1280,6,-0.11936868700000003
6,38,D_exp3,0.627777778,0.864318182,50.47,152,640f3ac4224f3464655763ad,130,Second,15,25,F,0.339328125,1280,6,0.23654040399999998
6,25,A_exp3,0.687963019,0.630909091,78.2,97,640f3ac4224f3464655763ad,131,Second,15,25,F,0.339328125,1280,6,-0.057053927999999976
6,1,A_exp3,0.02129631,0.2,98.47,1,640f3ac4224f3464655763ad,132,Second,15,25,F,0.339328125,1280,6,0.17870369000000003
6,6,C_exp3,0.02129631,0.289772727,96.58,23,640f3ac4224f3464655763ad,133,Second,15,25,F,0.339328125,1280,6,0.268476417
6,26,C_exp3,0.323148176,0.648863636,76.62,103,640f3ac4224f3464655763ad,134,Second,15,25,F,0.339328125,1280,6,0.32571545999999996
6,3,D_exp3,0.176851866,0.235909091,97.87,12,640f3ac4224f3464655763ad,135,Second,15,25,F,0.339328125,1280,6,0.05905722499999999
6,32,D_exp3,0.633333333,0.756590909,65.73,128,640f3ac4224f3464655763ad,136,Second,15,25,F,0.339328125,1280,6,0.12325757599999998
6,39,C_exp3,0.744444444,0.882272727,47.19,155,640f3ac4224f3464655763ad,137,Second,15,25,F,0.339328125,1280,6,0.13782828300000005
6,21,B_exp3,0.487037065,0.559090909,83.77,82,640f3ac4224f3464655763ad,138,Second,15,25,F,0.339328125,1280,6,0.07205384400000003
6,12,A_exp3,0.310185199,0.3975,92.82,45,640f3ac4224f3464655763ad,139,Second,15,25,F,0.339328125,1280,6,0.087314801
6,25,D_exp3,0.310185199,0.630909091,78.2,100,640f3ac4224f3464655763ad,141,Second,15,25,F,0.339328125,1280,6,0.320723892
6,2,C_exp3,0.111111111,0.217954545,98.2,7,640f3ac4224f3464655763ad,142,Second,15,25,F,0.339328125,1280,6,0.106843434
6,4,C_exp3,0.111111111,0.253863636,97.45,15,640f3ac4224f3464655763ad,143,Second,15,25,F,0.339328125,1280,6,0.14275252500000002
6,24,B_exp3,0.285185199,0.612954545,79.66,94,640f3ac4224f3464655763ad,144,Second,15,25,F,0.339328125,1280,6,0.327769346
6,19,D_exp3,0.235185199,0.523181818,86.21,76,640f3ac4224f3464655763ad,145,Second,15,25,F,0.339328125,1280,6,0.28799661899999995
6,13,C_exp3,0.140740755,0.415454545,91.98,51,640f3ac4224f3464655763ad,146,Second,15,25,F,0.339328125,1280,6,0.27471379
6,24,A_exp3,0.275925954,0.612954545,79.66,93,640f3ac4224f3464655763ad,147,Second,15,25,F,0.339328125,1280,6,0.33702859100000004
6,38,B_exp3,0.773148176,0.864318182,50.47,150,640f3ac4224f3464655763ad,148,Second,15,25,F,0.339328125,1280,6,0.09117000600000003
6,35,A_exp3,0.742592621,0.810454545,58.87,137,640f3ac4224f3464655763ad,149,Second,15,25,F,0.339328125,1280,6,0.06786192400000002
6,13,B_exp3,0.55,0.415454545,91.98,50,640f3ac4224f3464655763ad,150,Second,15,25,F,0.339328125,1280,6,-0.13454545500000004
6,15,D_exp3,0.057407422,0.451363636,90.29,60,640f3ac4224f3464655763ad,151,Second,15,25,F,0.339328125,1280,6,0.393956214
6,15,A_exp3,0.472222222,0.451363636,90.29,57,640f3ac4224f3464655763ad,152,Second,15,25,F,0.339328125,1280,6,-0.020858586000000012
6,1,D_exp3,0.175,0.2,98.47,4,640f3ac4224f3464655763ad,153,Second,15,25,F,0.339328125,1280,6,0.025000000000000022
6,19,C_exp3,0.228703732,0.523181818,86.21,75,640f3ac4224f3464655763ad,154,Second,15,25,F,0.339328125,1280,6,0.29447808599999997
6,9,B_exp3,0.330555556,0.343636364,94.9,34,640f3ac4224f3464655763ad,155,Second,15,25,F,0.339328125,1280,6,0.013080808000000055
6,38,A_exp3,0.75648151,0.864318182,50.47,149,640f3ac4224f3464655763ad,156,Second,15,25,F,0.339328125,1280,6,0.10783667200000002
6,41,B_exp3,0.967592621,0.918181818,39.66,162,640f3ac4224f3464655763ad,157,Second,15,25,F,0.339328125,1280,6,-0.049410803
6,33,B_exp3,0.766666667,0.774545455,63.57,130,640f3ac4224f3464655763ad,158,Second,15,25,F,0.339328125,1280,6,0.007878788000000081
6,34,B_exp3,0.637963019,0.7925,61.29,134,640f3ac4224f3464655763ad,159,Second,15,25,F,0.339328125,1280,6,0.15453698100000002
6,22,B_exp3,0.564814843,0.577045455,82.45,86,640f3ac4224f3464655763ad,160,Second,15,25,F,0.339328125,1280,6,0.012230612000000085
6,8,B_exp3,0.319444444,0.325681818,95.52,30,640f3ac4224f3464655763ad,161,Second,15,25,F,0.339328125,1280,6,0.006237374000000018
6,10,B_exp3,0.434259288,0.361590909,94.23,38,640f3ac4224f3464655763ad,162,Second,15,25,F,0.339328125,1280,6,-0.072668379
6,32,B_exp3,0.6,0.756590909,65.73,126,640f3ac4224f3464655763ad,163,Second,15,25,F,0.339328125,1280,6,0.15659090900000006
6,7,D_exp3,0.097222222,0.307727273,96.03,28,640f3ac4224f3464655763ad,164,Second,15,25,F,0.339328125,1280,6,0.21050505100000003
6,12,D_exp3,0.009259288,0.3975,92.82,48,640f3ac4224f3464655763ad,165,Second,15,25,F,0.339328125,1280,6,0.38824071200000004
6,44,B_exp3,0.972222222,0.972045455,23.65,174,640f3ac4224f3464655763ad,166,Second,15,25,F,0.339328125,1280,6,-1.767670000000221e-4
6,5,C_exp3,0.168518533,0.271818182,96.99,19,640f3ac4224f3464655763ad,167,Second,15,25,F,0.339328125,1280,6,0.10329964900000002
6,25,B_exp3,0.370370399,0.630909091,78.2,98,640f3ac4224f3464655763ad,168,Second,15,25,F,0.339328125,1280,6,0.260538692
6,22,D_exp3,0.036111111,0.577045455,82.45,88,640f3ac4224f3464655763ad,169,Second,15,25,F,0.339328125,1280,6,0.5409343440000001
6,26,D_exp3,0.202777778,0.648863636,76.62,104,640f3ac4224f3464655763ad,170,Second,15,25,F,0.339328125,1280,6,0.446085858
6,43,A_exp3,0.930555556,0.954090909,30.04,169,640f3ac4224f3464655763ad,171,Second,15,25,F,0.339328125,1280,6,0.023535353000000092
6,8,D_exp3,0.098148176,0.325681818,95.52,32,640f3ac4224f3464655763ad,172,Second,15,25,F,0.339328125,1280,6,0.227533642
6,6,A_exp3,0.20648151,0.289772727,96.58,21,640f3ac4224f3464655763ad,173,Second,15,25,F,0.339328125,1280,6,0.083291217
6,37,B_exp3,0.612963019,0.846363636,53.4,146,640f3ac4224f3464655763ad,174,Second,15,25,F,0.339328125,1280,6,0.23340061699999992
6,39,A_exp3,0.9,0.882272727,47.19,153,640f3ac4224f3464655763ad,175,Second,15,25,F,0.339328125,1280,6,-0.017727272999999988
6,32,C_exp3,0.571296353,0.756590909,65.73,127,640f3ac4224f3464655763ad,176,Second,15,25,F,0.339328125,1280,6,0.185294556
6,10,D_exp3,0.091666667,0.361590909,94.23,40,640f3ac4224f3464655763ad,177,Second,15,25,F,0.339328125,1280,6,0.26992424200000004
6,34,D_exp3,0.405555556,0.7925,61.29,136,640f3ac4224f3464655763ad,178,Second,15,25,F,0.339328125,1280,6,0.386944444
6,7,B_exp3,0.027777778,0.307727273,96.03,26,640f3ac4224f3464655763ad,179,Second,15,25,F,0.339328125,1280,6,0.27994949500000005
6,18,A_exp3,0.152777778,0.505227273,87.36,69,640f3ac4224f3464655763ad,180,Second,15,25,F,0.339328125,1280,6,0.352449495
6,20,B_exp3,0.258333333,0.541136364,85.04,78,640f3ac4224f3464655763ad,181,Second,15,25,F,0.339328125,1280,6,0.282803031
6,4,A_exp3,0.258333333,0.253863636,97.45,13,640f3ac4224f3464655763ad,182,Second,15,25,F,0.339328125,1280,6,-0.004469696999999995
6,44,C_exp3,0.662963019,0.972045455,23.65,175,640f3ac4224f3464655763ad,183,Second,15,25,F,0.339328125,1280,6,0.30908243599999996
6,40,C_exp3,0.570370399,0.900227273,43.56,159,640f3ac4224f3464655763ad,184,Second,15,25,F,0.339328125,1280,6,0.3298568740000001
6,18,C_exp3,0.444444444,0.505227273,87.36,71,640f3ac4224f3464655763ad,185,Second,15,25,F,0.339328125,1280,6,0.06078282900000004
77,9,B_exp3,0.200270047,0.343636364,94.9,34,640f3af66933ce127cd5cce9,0,First,29,22,F,0.35101388888888885,1440,6,0.14336631700000002
77,20,D_exp3,0.167821757,0.541136364,85.04,80,640f3af66933ce127cd5cce9,1,First,29,22,F,0.35101388888888885,1440,6,0.37331460699999996
77,8,D_exp3,0.067269084,0.325681818,95.52,32,640f3af66933ce127cd5cce9,2,First,29,22,F,0.35101388888888885,1440,6,0.258412734
77,4,A_exp3,0.163059828,0.253863636,97.45,13,640f3af66933ce127cd5cce9,3,First,29,22,F,0.35101388888888885,1440,6,0.09080380800000001
77,36,C_exp3,0.64182095,0.828409091,56.22,143,640f3af66933ce127cd5cce9,4,First,29,22,F,0.35101388888888885,1440,6,0.1865881410000001
77,35,B_exp3,0.756755575,0.810454545,58.87,138,640f3af66933ce127cd5cce9,5,First,29,22,F,0.35101388888888885,1440,6,0.05369897000000001
77,21,C_exp3,0.236915249,0.559090909,83.77,83,640f3af66933ce127cd5cce9,6,First,29,22,F,0.35101388888888885,1440,6,0.32217566000000003
77,44,A_exp3,0.959614665,0.972045455,23.65,173,640f3af66933ce127cd5cce9,7,First,29,22,F,0.35101388888888885,1440,6,0.012430789999999914
77,6,A_exp3,0.069308404,0.289772727,96.58,21,640f3af66933ce127cd5cce9,8,First,29,22,F,0.35101388888888885,1440,6,0.22046432300000002
77,20,A_exp3,0.522611152,0.541136364,85.04,77,640f3af66933ce127cd5cce9,9,First,29,22,F,0.35101388888888885,1440,6,0.018525212000000013
77,25,B_exp3,0.637401733,0.630909091,78.2,98,640f3af66933ce127cd5cce9,10,First,29,22,F,0.35101388888888885,1440,6,-0.006492641999999993
77,18,B_exp3,0.654208917,0.505227273,87.36,70,640f3af66933ce127cd5cce9,11,First,29,22,F,0.35101388888888885,1440,6,-0.1489816439999999
77,2,B_exp3,0.338119371,0.217954545,98.2,6,640f3af66933ce127cd5cce9,12,First,29,22,F,0.35101388888888885,1440,6,-0.120164826
77,39,D_exp3,0.854863281,0.882272727,47.19,156,640f3af66933ce127cd5cce9,13,First,29,22,F,0.35101388888888885,1440,6,0.02740944600000006
77,18,A_exp3,0.725577257,0.505227273,87.36,69,640f3af66933ce127cd5cce9,14,First,29,22,F,0.35101388888888885,1440,6,-0.22034998399999994
77,4,B_exp3,0.318326009,0.253863636,97.45,14,640f3af66933ce127cd5cce9,15,First,29,22,F,0.35101388888888885,1440,6,-0.06446237300000002
77,12,B_exp3,0.232069872,0.3975,92.82,46,640f3af66933ce127cd5cce9,16,First,29,22,F,0.35101388888888885,1440,6,0.165430128
77,41,C_exp3,0.787536757,0.918181818,39.66,163,640f3af66933ce127cd5cce9,17,First,29,22,F,0.35101388888888885,1440,6,0.13064506099999995
77,24,A_exp3,0.808504232,0.612954545,79.66,93,640f3af66933ce127cd5cce9,18,First,29,22,F,0.35101388888888885,1440,6,-0.19554968699999997
77,15,D_exp3,0.045520325,0.451363636,90.29,60,640f3af66933ce127cd5cce9,19,First,29,22,F,0.35101388888888885,1440,6,0.40584331100000004
77,2,C_exp3,0.050228611,0.217954545,98.2,7,640f3af66933ce127cd5cce9,20,First,29,22,F,0.35101388888888885,1440,6,0.167725934
77,17,B_exp3,0.224226549,0.487272727,88.33,66,640f3af66933ce127cd5cce9,21,First,29,22,F,0.35101388888888885,1440,6,0.263046178
77,12,C_exp3,0.126357558,0.3975,92.82,47,640f3af66933ce127cd5cce9,23,First,29,22,F,0.35101388888888885,1440,6,0.27114244200000004
77,9,A_exp3,0.095167982,0.343636364,94.9,33,640f3af66933ce127cd5cce9,24,First,29,22,F,0.35101388888888885,1440,6,0.24846838200000004
77,8,C_exp3,0.094612427,0.325681818,95.52,31,640f3af66933ce127cd5cce9,25,First,29,22,F,0.35101388888888885,1440,6,0.231069391
77,32,B_exp3,0.256347182,0.756590909,65.73,126,640f3af66933ce127cd5cce9,26,First,29,22,F,0.35101388888888885,1440,6,0.500243727
77,32,C_exp3,0.164084981,0.756590909,65.73,127,640f3af66933ce127cd5cce9,27,First,29,22,F,0.35101388888888885,1440,6,0.592505928
77,29,C_exp3,0.645324029,0.702727273,71.6,115,640f3af66933ce127cd5cce9,28,First,29,22,F,0.35101388888888885,1440,6,0.057403244000000075
77,7,D_exp3,0.072894457,0.307727273,96.03,28,640f3af66933ce127cd5cce9,29,First,29,22,F,0.35101388888888885,1440,6,0.23483281600000003
77,13,C_exp3,0.061098158,0.415454545,91.98,51,640f3af66933ce127cd5cce9,30,First,29,22,F,0.35101388888888885,1440,6,0.354356387
77,4,D_exp3,0.04116099,0.253863636,97.45,16,640f3af66933ce127cd5cce9,31,First,29,22,F,0.35101388888888885,1440,6,0.212702646
77,16,D_exp3,0.047432488,0.469318182,89.4,64,640f3af66933ce127cd5cce9,32,First,29,22,F,0.35101388888888885,1440,6,0.421885694
77,34,D_exp3,0.050481567,0.7925,61.29,136,640f3af66933ce127cd5cce9,33,First,29,22,F,0.35101388888888885,1440,6,0.742018433
77,36,D_exp3,0.044205797,0.828409091,56.22,144,640f3af66933ce127cd5cce9,34,First,29,22,F,0.35101388888888885,1440,6,0.784203294
77,16,B_exp3,0.81328654,0.469318182,89.4,62,640f3af66933ce127cd5cce9,35,First,29,22,F,0.35101388888888885,1440,6,-0.34396835800000003
77,41,B_exp3,0.970410156,0.918181818,39.66,162,640f3af66933ce127cd5cce9,36,First,29,22,F,0.35101388888888885,1440,6,-0.05222833800000004
77,8,B_exp3,0.254146186,0.325681818,95.52,30,640f3af66933ce127cd5cce9,37,First,29,22,F,0.35101388888888885,1440,6,0.07153563200000002
77,11,A_exp3,0.242233548,0.379545455,93.55,41,640f3af66933ce127cd5cce9,38,First,29,22,F,0.35101388888888885,1440,6,0.13731190699999998
77,24,C_exp3,0.163730706,0.612954545,79.66,95,640f3af66933ce127cd5cce9,39,First,29,22,F,0.35101388888888885,1440,6,0.449223839
77,38,B_exp3,0.9732449,0.864318182,50.47,150,640f3af66933ce127cd5cce9,41,First,29,22,F,0.35101388888888885,1440,6,-0.10892671799999998
77,4,C_exp3,0.113313531,0.253863636,97.45,15,640f3af66933ce127cd5cce9,42,First,29,22,F,0.35101388888888885,1440,6,0.140550105
77,42,A_exp3,1,0.936136364,35.25,165,640f3af66933ce127cd5cce9,43,First,29,22,F,0.35101388888888885,1440,6,-0.063863636
77,21,A_exp3,0.794306641,0.559090909,83.77,81,640f3af66933ce127cd5cce9,44,First,29,22,F,0.35101388888888885,1440,6,-0.235215732
77,5,D_exp3,0.129158902,0.271818182,96.99,20,640f3af66933ce127cd5cce9,45,First,29,22,F,0.35101388888888885,1440,6,0.14265928000000003
77,39,A_exp3,0.987431776,0.882272727,47.19,153,640f3af66933ce127cd5cce9,46,First,29,22,F,0.35101388888888885,1440,6,-0.10515904899999995
77,34,A_exp3,0.903957926,0.7925,61.29,133,640f3af66933ce127cd5cce9,47,First,29,22,F,0.35101388888888885,1440,6,-0.11145792600000004
77,27,A_exp3,0.903957926,0.666818182,75.05,105,640f3af66933ce127cd5cce9,48,First,29,22,F,0.35101388888888885,1440,6,-0.23713974400000004
77,31,C_exp3,0.660578885,0.738636364,67.86,123,640f3af66933ce127cd5cce9,49,First,29,22,F,0.35101388888888885,1440,6,0.07805747900000004
77,35,A_exp3,0.817393934,0.810454545,58.87,137,640f3af66933ce127cd5cce9,50,First,29,22,F,0.35101388888888885,1440,6,-0.006939389000000018
77,5,C_exp3,0.047681647,0.271818182,96.99,19,640f3af66933ce127cd5cce9,51,First,29,22,F,0.35101388888888885,1440,6,0.22413653500000003
77,5,B_exp3,0.098094618,0.271818182,96.99,18,640f3af66933ce127cd5cce9,52,First,29,22,F,0.35101388888888885,1440,6,0.17372356400000002
77,35,C_exp3,0.112373318,0.810454545,58.87,139,640f3af66933ce127cd5cce9,53,First,29,22,F,0.35101388888888885,1440,6,0.6980812270000001
77,6,C_exp3,0.112373318,0.289772727,96.58,23,640f3af66933ce127cd5cce9,54,First,29,22,F,0.35101388888888885,1440,6,0.177399409
77,18,D_exp3,0.061182827,0.505227273,87.36,72,640f3af66933ce127cd5cce9,55,First,29,22,F,0.35101388888888885,1440,6,0.44404444600000004
77,19,D_exp3,0.048940125,0.523181818,86.21,76,640f3af66933ce127cd5cce9,56,First,29,22,F,0.35101388888888885,1440,6,0.47424169299999996
77,5,A_exp3,0.046717902,0.271818182,96.99,17,640f3af66933ce127cd5cce9,57,First,29,22,F,0.35101388888888885,1440,6,0.22510028
77,42,C_exp3,0.841783176,0.936136364,35.25,167,640f3af66933ce127cd5cce9,58,First,29,22,F,0.35101388888888885,1440,6,0.09435318800000003
77,23,A_exp3,0.708155043,0.595,81.13,89,640f3af66933ce127cd5cce9,59,First,29,22,F,0.35101388888888885,1440,6,-0.11315504300000001
77,43,D_exp3,0.915137668,0.954090909,30.04,172,640f3af66933ce127cd5cce9,60,First,29,22,F,0.35101388888888885,1440,6,0.03895324100000008
77,39,B_exp3,0.909551459,0.882272727,47.19,154,640f3af66933ce127cd5cce9,62,First,29,22,F,0.35101388888888885,1440,6,-0.027278731999999972
77,28,B_exp3,0.80852478,0.684772727,73.36,110,640f3af66933ce127cd5cce9,63,First,29,22,F,0.35101388888888885,1440,6,-0.12375205300000003
77,17,A_exp3,0.732466159,0.487272727,88.33,65,640f3af66933ce127cd5cce9,64,First,29,22,F,0.35101388888888885,1440,6,-0.245193432
77,38,C_exp3,0.785650431,0.864318182,50.47,151,640f3af66933ce127cd5cce9,65,First,29,22,F,0.35101388888888885,1440,6,0.07866775100000001
77,21,B_exp3,0.570094876,0.559090909,83.77,82,640f3af66933ce127cd5cce9,66,First,29,22,F,0.35101388888888885,1440,6,-0.011003966999999948
77,41,D_exp3,0.831751777,0.918181818,39.66,164,640f3af66933ce127cd5cce9,67,First,29,22,F,0.35101388888888885,1440,6,0.08643004099999996
77,3,A_exp3,0.221556668,0.235909091,97.87,9,640f3af66933ce127cd5cce9,68,First,29,22,F,0.35101388888888885,1440,6,0.014352422999999975
77,28,C_exp3,0.155095588,0.684772727,73.36,111,640f3af66933ce127cd5cce9,69,First,29,22,F,0.35101388888888885,1440,6,0.529677139
77,10,A_exp3,0.153848843,0.361590909,94.23,37,640f3af66933ce127cd5cce9,70,First,29,22,F,0.35101388888888885,1440,6,0.207742066
77,35,D_exp3,0.726196018,0.810454545,58.87,140,640f3af66933ce127cd5cce9,71,First,29,22,F,0.35101388888888885,1440,6,0.08425852700000003
77,9,C_exp3,0.110365567,0.343636364,94.9,35,640f3af66933ce127cd5cce9,72,First,29,22,F,0.35101388888888885,1440,6,0.23327079700000003
77,10,C_exp3,0.1086989,0.361590909,94.23,39,640f3af66933ce127cd5cce9,73,First,29,22,F,0.35101388888888885,1440,6,0.25289200900000003
77,33,A_exp3,0.831544461,0.774545455,63.57,129,640f3af66933ce127cd5cce9,74,First,29,22,F,0.35101388888888885,1440,6,-0.05699900599999996
77,24,B_exp3,0.699596083,0.612954545,79.66,94,640f3af66933ce127cd5cce9,75,First,29,22,F,0.35101388888888885,1440,6,-0.08664153799999996
77,6,B_exp3,0.107835592,0.289772727,96.58,22,640f3af66933ce127cd5cce9,76,First,29,22,F,0.35101388888888885,1440,6,0.18193713500000003
77,20,C_exp3,0.108986037,0.541136364,85.04,79,640f3af66933ce127cd5cce9,77,First,29,22,F,0.35101388888888885,1440,6,0.432150327
77,14,A_exp3,0.316859402,0.433409091,91.2,53,640f3af66933ce127cd5cce9,78,First,29,22,F,0.35101388888888885,1440,6,0.11654968900000001
77,11,D_exp3,0.053436347,0.379545455,93.55,44,640f3af66933ce127cd5cce9,79,First,29,22,F,0.35101388888888885,1440,6,0.326109108
77,13,A_exp3,0.131456604,0.415454545,91.98,49,640f3af66933ce127cd5cce9,80,First,29,22,F,0.35101388888888885,1440,6,0.283997941
77,10,B_exp3,0.325112373,0.361590909,94.23,38,640f3af66933ce127cd5cce9,81,First,29,22,F,0.35101388888888885,1440,6,0.036478536000000006
77,23,C_exp3,0.523688829,0.595,81.13,91,640f3af66933ce127cd5cce9,82,First,29,22,F,0.35101388888888885,1440,6,0.07131117099999995
77,26,A_exp3,0.766651679,0.648863636,76.62,101,640f3af66933ce127cd5cce9,84,First,29,22,F,0.35101388888888885,1440,6,-0.11778804300000001
77,14,C_exp3,0.230357157,0.433409091,91.2,55,640f3af66933ce127cd5cce9,85,First,29,22,F,0.35101388888888885,1440,6,0.20305193400000002
77,34,C_exp3,0.768180406,0.7925,61.29,135,640f3af66933ce127cd5cce9,86,First,29,22,F,0.35101388888888885,1440,6,0.024319593999999944
77,26,D_exp3,0.448090685,0.648863636,76.62,104,640f3af66933ce127cd5cce9,87,First,29,22,F,0.35101388888888885,1440,6,0.20077295099999998
77,31,B_exp3,0.800527886,0.738636364,67.86,122,640f3af66933ce127cd5cce9,88,First,29,22,F,0.35101388888888885,1440,6,-0.06189152200000003
77,40,C_exp3,0.865324164,0.900227273,43.56,159,640f3af66933ce127cd5cce9,89,First,29,22,F,0.35101388888888885,1440,6,0.03490310900000004
77,7,A_exp3,0.152635396,0.307727273,96.03,25,640f3af66933ce127cd5cce9,90,First,29,22,F,0.35101388888888885,1440,6,0.15509187700000002
77,37,A_exp3,0.953720432,0.846363636,53.4,145,640f3af66933ce127cd5cce9,91,First,29,22,F,0.35101388888888885,1440,6,-0.10735679600000003
77,13,B_exp3,0.297516615,0.415454545,91.98,50,640f3af66933ce127cd5cce9,92,First,29,22,F,0.35101388888888885,1440,6,0.11793793000000002
77,43,C_exp3,0.904011909,0.954090909,30.04,171,640f3af66933ce127cd5cce9,93,Second,29,22,F,0.35101388888888885,1440,6,0.050079000000000096
77,33,C_exp3,0.641021932,0.774545455,63.57,131,640f3af66933ce127cd5cce9,94,Second,29,22,F,0.35101388888888885,1440,6,0.13352352300000003
77,31,D_exp3,0.205057271,0.738636364,67.86,124,640f3af66933ce127cd5cce9,95,Second,29,22,F,0.35101388888888885,1440,6,0.533579093
77,14,D_exp3,0.072341953,0.433409091,91.2,56,640f3af66933ce127cd5cce9,96,Second,29,22,F,0.35101388888888885,1440,6,0.361067138
77,45,D_exp3,1,0.99,14.13,180,640f3af66933ce127cd5cce9,97,Second,29,22,F,0.35101388888888885,1440,6,-0.010000000000000009
77,1,A_exp3,0.207708571,0.2,98.47,1,640f3af66933ce127cd5cce9,98,Second,29,22,F,0.35101388888888885,1440,6,-0.007708570999999997
77,44,C_exp3,1,0.972045455,23.65,175,640f3af66933ce127cd5cce9,99,Second,29,22,F,0.35101388888888885,1440,6,-0.027954545000000053
77,23,B_exp3,0.643247409,0.595,81.13,90,640f3af66933ce127cd5cce9,100,Second,29,22,F,0.35101388888888885,1440,6,-0.04824740900000002
77,37,B_exp3,0.785733914,0.846363636,53.4,146,640f3af66933ce127cd5cce9,101,Second,29,22,F,0.35101388888888885,1440,6,0.06062972199999994
77,1,C_exp3,0.21985321,0.2,98.47,3,640f3af66933ce127cd5cce9,102,Second,29,22,F,0.35101388888888885,1440,6,-0.019853209999999982
77,45,A_exp3,1,0.99,14.13,177,640f3af66933ce127cd5cce9,103,Second,29,22,F,0.35101388888888885,1440,6,-0.010000000000000009
77,27,C_exp3,0.552900187,0.666818182,75.05,107,640f3af66933ce127cd5cce9,104,Second,29,22,F,0.35101388888888885,1440,6,0.113917995
77,44,D_exp3,1,0.972045455,23.65,176,640f3af66933ce127cd5cce9,105,Second,29,22,F,0.35101388888888885,1440,6,-0.027954545000000053
77,7,C_exp3,0.096988966,0.307727273,96.03,27,640f3af66933ce127cd5cce9,106,Second,29,22,F,0.35101388888888885,1440,6,0.210738307
77,31,A_exp3,0.843733181,0.738636364,67.86,121,640f3af66933ce127cd5cce9,107,Second,29,22,F,0.35101388888888885,1440,6,-0.10509681700000006
77,8,A_exp3,0.099479268,0.325681818,95.52,29,640f3af66933ce127cd5cce9,108,Second,29,22,F,0.35101388888888885,1440,6,0.22620255
77,15,A_exp3,0.099479268,0.451363636,90.29,57,640f3af66933ce127cd5cce9,109,Second,29,22,F,0.35101388888888885,1440,6,0.351884368
77,37,D_exp3,0.621527981,0.846363636,53.4,148,640f3af66933ce127cd5cce9,110,Second,29,22,F,0.35101388888888885,1440,6,0.22483565500000002
77,30,D_exp3,0.479477743,0.720681818,69.76,120,640f3af66933ce127cd5cce9,111,Second,29,22,F,0.35101388888888885,1440,6,0.24120407499999996
77,7,B_exp3,0.089247064,0.307727273,96.03,26,640f3af66933ce127cd5cce9,112,Second,29,22,F,0.35101388888888885,1440,6,0.21848020900000004
77,28,D_exp3,0.284554511,0.684772727,73.36,112,640f3af66933ce127cd5cce9,113,Second,29,22,F,0.35101388888888885,1440,6,0.400218216
77,32,D_exp3,0.472451104,0.756590909,65.73,128,640f3af66933ce127cd5cce9,114,Second,29,22,F,0.35101388888888885,1440,6,0.284139805
77,26,B_exp3,0.704318237,0.648863636,76.62,102,640f3af66933ce127cd5cce9,115,Second,29,22,F,0.35101388888888885,1440,6,-0.05545460099999999
77,38,D_exp3,0.702809245,0.864318182,50.47,152,640f3af66933ce127cd5cce9,116,Second,29,22,F,0.35101388888888885,1440,6,0.16150893700000002
77,27,D_exp3,0.290627645,0.666818182,75.05,108,640f3af66933ce127cd5cce9,117,Second,29,22,F,0.35101388888888885,1440,6,0.376190537
77,20,B_exp3,0.223213264,0.541136364,85.04,78,640f3af66933ce127cd5cce9,118,Second,29,22,F,0.35101388888888885,1440,6,0.3179231
77,29,D_exp3,0.083316786,0.702727273,71.6,116,640f3af66933ce127cd5cce9,119,Second,29,22,F,0.35101388888888885,1440,6,0.619410487
77,13,D_exp3,0.048384332,0.415454545,91.98,52,640f3af66933ce127cd5cce9,120,Second,29,22,F,0.35101388888888885,1440,6,0.367070213
77,6,D_exp3,0.108255141,0.289772727,96.58,24,640f3af66933ce127cd5cce9,121,Second,29,22,F,0.35101388888888885,1440,6,0.181517586
77,19,B_exp3,0.042701823,0.523181818,86.21,74,640f3af66933ce127cd5cce9,122,Second,29,22,F,0.35101388888888885,1440,6,0.48047999499999994
77,3,B_exp3,0.059143778,0.235909091,97.87,10,640f3af66933ce127cd5cce9,123,Second,29,22,F,0.35101388888888885,1440,6,0.17676531299999998
77,30,C_exp3,0.196767578,0.720681818,69.76,119,640f3af66933ce127cd5cce9,124,Second,29,22,F,0.35101388888888885,1440,6,0.52391424
77,28,A_exp3,0.55882487,0.684772727,73.36,109,640f3af66933ce127cd5cce9,125,Second,29,22,F,0.35101388888888885,1440,6,0.125947857
77,42,D_exp3,0.849159478,0.936136364,35.25,168,640f3af66933ce127cd5cce9,126,Second,29,22,F,0.35101388888888885,1440,6,0.08697688599999998
77,34,B_exp3,0.927044542,0.7925,61.29,134,640f3af66933ce127cd5cce9,127,Second,29,22,F,0.35101388888888885,1440,6,-0.134544542
77,26,C_exp3,0.680854967,0.648863636,76.62,103,640f3af66933ce127cd5cce9,128,Second,29,22,F,0.35101388888888885,1440,6,-0.03199133100000007
77,21,D_exp3,0.258142192,0.559090909,83.77,84,640f3af66933ce127cd5cce9,129,Second,29,22,F,0.35101388888888885,1440,6,0.30094871700000003
77,43,B_exp3,1,0.954090909,30.04,170,640f3af66933ce127cd5cce9,130,Second,29,22,F,0.35101388888888885,1440,6,-0.04590909099999996
77,38,A_exp3,1,0.864318182,50.47,149,640f3af66933ce127cd5cce9,131,Second,29,22,F,0.35101388888888885,1440,6,-0.135681818
77,40,B_exp3,0.928271891,0.900227273,43.56,158,640f3af66933ce127cd5cce9,132,Second,29,22,F,0.35101388888888885,1440,6,-0.02804461799999991
77,19,A_exp3,0.745188395,0.523181818,86.21,73,640f3af66933ce127cd5cce9,133,Second,29,22,F,0.35101388888888885,1440,6,-0.22200657700000004
77,3,D_exp3,0.020521817,0.235909091,97.87,12,640f3af66933ce127cd5cce9,134,Second,29,22,F,0.35101388888888885,1440,6,0.215387274
77,29,A_exp3,0.021077372,0.702727273,71.6,113,640f3af66933ce127cd5cce9,135,Second,29,22,F,0.35101388888888885,1440,6,0.681649901
77,39,C_exp3,0.794816555,0.882272727,47.19,155,640f3af66933ce127cd5cce9,136,Second,29,22,F,0.35101388888888885,1440,6,0.087456172
77,41,A_exp3,0.898039958,0.918181818,39.66,161,640f3af66933ce127cd5cce9,137,Second,29,22,F,0.35101388888888885,1440,6,0.020141859999999956
77,29,B_exp3,0.898595513,0.702727273,71.6,114,640f3af66933ce127cd5cce9,138,Second,29,22,F,0.35101388888888885,1440,6,-0.19586823999999992
77,19,C_exp3,0.431898804,0.523181818,86.21,75,640f3af66933ce127cd5cce9,139,Second,29,22,F,0.35101388888888885,1440,6,0.09128301399999994
77,15,C_exp3,0.222634583,0.451363636,90.29,59,640f3af66933ce127cd5cce9,140,Second,29,22,F,0.35101388888888885,1440,6,0.22872905300000002
77,30,A_exp3,0.711947157,0.720681818,69.76,117,640f3af66933ce127cd5cce9,141,Second,29,22,F,0.35101388888888885,1440,6,0.008734660999999977
77,12,D_exp3,0.075381436,0.3975,92.82,48,640f3af66933ce127cd5cce9,142,Second,29,22,F,0.35101388888888885,1440,6,0.32211856400000005
77,32,A_exp3,0.788106147,0.756590909,65.73,125,640f3af66933ce127cd5cce9,143,Second,29,22,F,0.35101388888888885,1440,6,-0.031515238
77,16,C_exp3,0.432240736,0.469318182,89.4,63,640f3af66933ce127cd5cce9,144,Second,29,22,F,0.35101388888888885,1440,6,0.03707744599999996
77,30,B_exp3,0.735374824,0.720681818,69.76,118,640f3af66933ce127cd5cce9,145,Second,29,22,F,0.35101388888888885,1440,6,-0.014693006000000008
77,14,B_exp3,0.500619642,0.433409091,91.2,54,640f3af66933ce127cd5cce9,146,Second,29,22,F,0.35101388888888885,1440,6,-0.06721055099999995
77,25,A_exp3,0.803183933,0.630909091,78.2,97,640f3af66933ce127cd5cce9,147,Second,29,22,F,0.35101388888888885,1440,6,-0.17227484199999998
77,22,B_exp3,0.72880032,0.577045455,82.45,86,640f3af66933ce127cd5cce9,148,Second,29,22,F,0.35101388888888885,1440,6,-0.1517548649999999
77,17,C_exp3,0.259360758,0.487272727,88.33,67,640f3af66933ce127cd5cce9,149,Second,29,22,F,0.35101388888888885,1440,6,0.227911969
77,37,C_exp3,0.625453016,0.846363636,53.4,147,640f3af66933ce127cd5cce9,150,Second,29,22,F,0.35101388888888885,1440,6,0.22091061999999995
77,36,B_exp3,0.908885769,0.828409091,56.22,142,640f3af66933ce127cd5cce9,151,Second,29,22,F,0.35101388888888885,1440,6,-0.08047667799999991
77,24,D_exp3,0.236249152,0.612954545,79.66,96,640f3af66933ce127cd5cce9,152,Second,29,22,F,0.35101388888888885,1440,6,0.37670539300000006
77,1,D_exp3,0.04285258,0.2,98.47,4,640f3af66933ce127cd5cce9,153,Second,29,22,F,0.35101388888888885,1440,6,0.15714742
77,18,C_exp3,0.221931559,0.505227273,87.36,71,640f3af66933ce127cd5cce9,154,Second,29,22,F,0.35101388888888885,1440,6,0.28329571400000003
77,25,D_exp3,0.10473643,0.630909091,78.2,100,640f3af66933ce127cd5cce9,155,Second,29,22,F,0.35101388888888885,1440,6,0.526172661
77,36,A_exp3,0.775163167,0.828409091,56.22,141,640f3af66933ce127cd5cce9,156,Second,29,22,F,0.35101388888888885,1440,6,0.053245924000000056
77,23,D_exp3,0.326039225,0.595,81.13,92,640f3af66933ce127cd5cce9,157,Second,29,22,F,0.35101388888888885,1440,6,0.268960775
77,22,A_exp3,0.695038452,0.577045455,82.45,85,640f3af66933ce127cd5cce9,158,Second,29,22,F,0.35101388888888885,1440,6,-0.11799299699999999
77,12,A_exp3,0.275384657,0.3975,92.82,45,640f3af66933ce127cd5cce9,159,Second,29,22,F,0.35101388888888885,1440,6,0.12211534300000004
77,40,D_exp3,0.846354709,0.900227273,43.56,160,640f3af66933ce127cd5cce9,160,Second,29,22,F,0.35101388888888885,1440,6,0.05387256400000007
77,2,A_exp3,0.114079963,0.217954545,98.2,5,640f3af66933ce127cd5cce9,162,Second,29,22,F,0.35101388888888885,1440,6,0.103874582
77,33,B_exp3,0.850476481,0.774545455,63.57,130,640f3af66933ce127cd5cce9,163,Second,29,22,F,0.35101388888888885,1440,6,-0.0759310259999999
77,1,B_exp3,0.194675937,0.2,98.47,2,640f3af66933ce127cd5cce9,164,Second,29,22,F,0.35101388888888885,1440,6,0.005324063000000018
77,10,D_exp3,0.024016588,0.361590909,94.23,40,640f3af66933ce127cd5cce9,165,Second,29,22,F,0.35101388888888885,1440,6,0.337574321
77,22,C_exp3,0.182704366,0.577045455,82.45,87,640f3af66933ce127cd5cce9,166,Second,29,22,F,0.35101388888888885,1440,6,0.39434108900000003
77,44,B_exp3,1,0.972045455,23.65,174,640f3af66933ce127cd5cce9,168,Second,29,22,F,0.35101388888888885,1440,6,-0.027954545000000053
77,2,D_exp3,0.049071113,0.217954545,98.2,8,640f3af66933ce127cd5cce9,169,Second,29,22,F,0.35101388888888885,1440,6,0.168883432
77,33,D_exp3,0.638709174,0.774545455,63.57,132,640f3af66933ce127cd5cce9,170,Second,29,22,F,0.35101388888888885,1440,6,0.135836281
77,3,C_exp3,0.061179606,0.235909091,97.87,11,640f3af66933ce127cd5cce9,171,Second,29,22,F,0.35101388888888885,1440,6,0.174729485
77,27,B_exp3,0.644055583,0.666818182,75.05,106,640f3af66933ce127cd5cce9,172,Second,29,22,F,0.35101388888888885,1440,6,0.022762598999999994
77,15,B_exp3,0.415278727,0.451363636,90.29,58,640f3af66933ce127cd5cce9,173,Second,29,22,F,0.35101388888888885,1440,6,0.036084909
77,11,B_exp3,0.183674757,0.379545455,93.55,42,640f3af66933ce127cd5cce9,174,Second,29,22,F,0.35101388888888885,1440,6,0.19587069799999998
77,43,A_exp3,1,0.954090909,30.04,169,640f3af66933ce127cd5cce9,175,Second,29,22,F,0.35101388888888885,1440,6,-0.04590909099999996
77,42,B_exp3,1,0.936136364,35.25,166,640f3af66933ce127cd5cce9,176,Second,29,22,F,0.35101388888888885,1440,6,-0.063863636
77,16,A_exp3,0.418971558,0.469318182,89.4,61,640f3af66933ce127cd5cce9,177,Second,29,22,F,0.35101388888888885,1440,6,0.05034662399999995
77,45,C_exp3,1,0.99,14.13,179,640f3af66933ce127cd5cce9,178,Second,29,22,F,0.35101388888888885,1440,6,-0.010000000000000009
77,25,C_exp3,0.483857897,0.630909091,78.2,99,640f3af66933ce127cd5cce9,179,Second,29,22,F,0.35101388888888885,1440,6,0.14705119400000005
77,40,A_exp3,1,0.900227273,43.56,157,640f3af66933ce127cd5cce9,180,Second,29,22,F,0.35101388888888885,1440,6,-0.09977272699999995
77,9,D_exp3,0.102940504,0.343636364,94.9,36,640f3af66933ce127cd5cce9,181,Second,29,22,F,0.35101388888888885,1440,6,0.24069586000000004
77,17,D_exp3,0.136830444,0.487272727,88.33,68,640f3af66933ce127cd5cce9,182,Second,29,22,F,0.35101388888888885,1440,6,0.350442283
77,45,B_exp3,1,0.99,14.13,178,640f3af66933ce127cd5cce9,183,Second,29,22,F,0.35101388888888885,1440,6,-0.010000000000000009
77,11,C_exp3,0.153680284,0.379545455,93.55,43,640f3af66933ce127cd5cce9,184,Second,29,22,F,0.35101388888888885,1440,6,0.22586517099999998
77,22,D_exp3,0.081914029,0.577045455,82.45,88,640f3af66933ce127cd5cce9,185,Second,29,22,F,0.35101388888888885,1440,6,0.49513142600000004
45,10,B_exp3,0.175925926,0.361590909,94.23,38,640f3b1f1b97231177a7b2f9,0,First,23,24,M,0.32246093750000004,1536,6,0.185664983
45,3,A_exp3,0.157407407,0.235909091,97.87,9,640f3b1f1b97231177a7b2f9,1,First,23,24,M,0.32246093750000004,1536,6,0.07850168399999999
45,8,D_exp3,0.213888875,0.325681818,95.52,32,640f3b1f1b97231177a7b2f9,2,First,23,24,M,0.32246093750000004,1536,6,0.111792943
45,37,D_exp3,0.515740783,0.846363636,53.4,148,640f3b1f1b97231177a7b2f9,3,First,23,24,M,0.32246093750000004,1536,6,0.33062285299999994
45,23,C_exp3,0.265740783,0.595,81.13,91,640f3b1f1b97231177a7b2f9,4,First,23,24,M,0.32246093750000004,1536,6,0.329259217
45,4,B_exp3,0.136111118,0.253863636,97.45,14,640f3b1f1b97231177a7b2f9,5,First,23,24,M,0.32246093750000004,1536,6,0.117752518
45,42,B_exp3,0.912037037,0.936136364,35.25,166,640f3b1f1b97231177a7b2f9,6,First,23,24,M,0.32246093750000004,1536,6,0.024099326999999948
45,27,A_exp3,0.791666667,0.666818182,75.05,105,640f3b1f1b97231177a7b2f9,7,First,23,24,M,0.32246093750000004,1536,6,-0.12484848500000001
45,22,D_exp3,0.431481467,0.577045455,82.45,88,640f3b1f1b97231177a7b2f9,8,First,23,24,M,0.32246093750000004,1536,6,0.14556398800000003
45,8,A_exp3,0.224074116,0.325681818,95.52,29,640f3b1f1b97231177a7b2f9,9,First,23,24,M,0.32246093750000004,1536,6,0.10160770200000002
45,39,A_exp3,0.896296325,0.882272727,47.19,153,640f3b1f1b97231177a7b2f9,10,First,23,24,M,0.32246093750000004,1536,6,-0.01402359799999997
45,15,C_exp3,0.127777771,0.451363636,90.29,59,640f3b1f1b97231177a7b2f9,11,First,23,24,M,0.32246093750000004,1536,6,0.323585865
45,39,B_exp3,0.868518547,0.882272727,47.19,154,640f3b1f1b97231177a7b2f9,12,First,23,24,M,0.32246093750000004,1536,6,0.01375418000000006
45,14,B_exp3,0.210185228,0.433409091,91.2,54,640f3b1f1b97231177a7b2f9,13,First,23,24,M,0.32246093750000004,1536,6,0.22322386300000002
45,29,A_exp3,0.75462963,0.702727273,71.6,113,640f3b1f1b97231177a7b2f9,14,First,23,24,M,0.32246093750000004,1536,6,-0.05190235700000001
45,24,C_exp3,0.360185199,0.612954545,79.66,95,640f3b1f1b97231177a7b2f9,15,First,23,24,M,0.32246093750000004,1536,6,0.252769346
45,16,B_exp3,0.238888917,0.469318182,89.4,62,640f3b1f1b97231177a7b2f9,16,First,23,24,M,0.32246093750000004,1536,6,0.23042926499999997
45,28,A_exp3,0.441666709,0.684772727,73.36,109,640f3b1f1b97231177a7b2f9,17,First,23,24,M,0.32246093750000004,1536,6,0.24310601800000003
45,17,B_exp3,0.314814815,0.487272727,88.33,66,640f3b1f1b97231177a7b2f9,18,First,23,24,M,0.32246093750000004,1536,6,0.172457912
45,11,B_exp3,0.217592593,0.379545455,93.55,42,640f3b1f1b97231177a7b2f9,19,First,23,24,M,0.32246093750000004,1536,6,0.16195286199999998
45,35,A_exp3,0.780555584,0.810454545,58.87,137,640f3b1f1b97231177a7b2f9,20,First,23,24,M,0.32246093750000004,1536,6,0.029898961
45,9,A_exp3,0.161111125,0.343636364,94.9,33,640f3b1f1b97231177a7b2f9,21,First,23,24,M,0.32246093750000004,1536,6,0.18252523900000003
45,1,B_exp3,0.083333333,0.2,98.47,2,640f3b1f1b97231177a7b2f9,22,First,23,24,M,0.32246093750000004,1536,6,0.11666666700000002
45,19,D_exp3,0.055555556,0.523181818,86.21,76,640f3b1f1b97231177a7b2f9,23,First,23,24,M,0.32246093750000004,1536,6,0.46762626199999996
45,2,C_exp3,0.086111104,0.217954545,98.2,7,640f3b1f1b97231177a7b2f9,24,First,23,24,M,0.32246093750000004,1536,6,0.131843441
45,34,A_exp3,0.787037037,0.7925,61.29,133,640f3b1f1b97231177a7b2f9,25,First,23,24,M,0.32246093750000004,1536,6,0.005462962999999932
45,30,B_exp3,0.76944443,0.720681818,69.76,118,640f3b1f1b97231177a7b2f9,26,First,23,24,M,0.32246093750000004,1536,6,-0.04876261199999998
45,19,C_exp3,0.220370399,0.523181818,86.21,75,640f3b1f1b97231177a7b2f9,27,First,23,24,M,0.32246093750000004,1536,6,0.30281141899999997
45,34,C_exp3,0.470370399,0.7925,61.29,135,640f3b1f1b97231177a7b2f9,28,First,23,24,M,0.32246093750000004,1536,6,0.322129601
45,10,D_exp3,0.062037044,0.361590909,94.23,40,640f3b1f1b97231177a7b2f9,29,First,23,24,M,0.32246093750000004,1536,6,0.29955386500000003
45,17,C_exp3,0.329629616,0.487272727,88.33,67,640f3b1f1b97231177a7b2f9,30,First,23,24,M,0.32246093750000004,1536,6,0.157643111
45,39,D_exp3,0.553703732,0.882272727,47.19,156,640f3b1f1b97231177a7b2f9,31,First,23,24,M,0.32246093750000004,1536,6,0.32856899500000003
45,2,B_exp3,0.199074074,0.217954545,98.2,6,640f3b1f1b97231177a7b2f9,32,First,23,24,M,0.32246093750000004,1536,6,0.01888047100000001
45,43,B_exp3,0.919444473,0.954090909,30.04,170,640f3b1f1b97231177a7b2f9,33,First,23,24,M,0.32246093750000004,1536,6,0.03464643600000006
45,37,B_exp3,0.890740712,0.846363636,53.4,146,640f3b1f1b97231177a7b2f9,34,First,23,24,M,0.32246093750000004,1536,6,-0.04437707600000007
45,17,A_exp3,0.325925968,0.487272727,88.33,65,640f3b1f1b97231177a7b2f9,35,First,23,24,M,0.32246093750000004,1536,6,0.161346759
45,33,A_exp3,0.718518504,0.774545455,63.57,129,640f3b1f1b97231177a7b2f9,36,First,23,24,M,0.32246093750000004,1536,6,0.0560269510000001
45,39,C_exp3,0.518518519,0.882272727,47.19,155,640f3b1f1b97231177a7b2f9,37,First,23,24,M,0.32246093750000004,1536,6,0.363754208
45,23,D_exp3,0.170370384,0.595,81.13,92,640f3b1f1b97231177a7b2f9,38,First,23,24,M,0.32246093750000004,1536,6,0.42462961599999993
45,13,C_exp3,0.121296317,0.415454545,91.98,51,640f3b1f1b97231177a7b2f9,39,First,23,24,M,0.32246093750000004,1536,6,0.294158228
45,28,B_exp3,0.457407422,0.684772727,73.36,110,640f3b1f1b97231177a7b2f9,40,First,23,24,M,0.32246093750000004,1536,6,0.22736530500000002
45,19,B_exp3,0.33148151,0.523181818,86.21,74,640f3b1f1b97231177a7b2f9,41,First,23,24,M,0.32246093750000004,1536,6,0.19170030799999999
45,6,B_exp3,0.234259288,0.289772727,96.58,22,640f3b1f1b97231177a7b2f9,42,First,23,24,M,0.32246093750000004,1536,6,0.055513439
45,27,D_exp3,0.224074116,0.666818182,75.05,108,640f3b1f1b97231177a7b2f9,43,First,23,24,M,0.32246093750000004,1536,6,0.442744066
45,35,C_exp3,0.439814815,0.810454545,58.87,139,640f3b1f1b97231177a7b2f9,44,First,23,24,M,0.32246093750000004,1536,6,0.37063973
45,2,A_exp3,0.170370384,0.217954545,98.2,5,640f3b1f1b97231177a7b2f9,45,First,23,24,M,0.32246093750000004,1536,6,0.047584160999999986
45,18,A_exp3,0.259259259,0.505227273,87.36,69,640f3b1f1b97231177a7b2f9,46,First,23,24,M,0.32246093750000004,1536,6,0.245968014
45,40,B_exp3,0.809259344,0.900227273,43.56,158,640f3b1f1b97231177a7b2f9,47,First,23,24,M,0.32246093750000004,1536,6,0.09096792900000006
45,38,A_exp3,0.856481481,0.864318182,50.47,149,640f3b1f1b97231177a7b2f9,48,First,23,24,M,0.32246093750000004,1536,6,0.007836701000000001
45,4,A_exp3,0.178703697,0.253863636,97.45,13,640f3b1f1b97231177a7b2f9,49,First,23,24,M,0.32246093750000004,1536,6,0.07515993900000001
45,8,B_exp3,0.148148148,0.325681818,95.52,30,640f3b1f1b97231177a7b2f9,50,First,23,24,M,0.32246093750000004,1536,6,0.17753367
45,5,A_exp3,0.148148148,0.271818182,96.99,17,640f3b1f1b97231177a7b2f9,51,First,23,24,M,0.32246093750000004,1536,6,0.12367003400000001
45,13,D_exp3,0.113888882,0.415454545,91.98,52,640f3b1f1b97231177a7b2f9,52,First,23,24,M,0.32246093750000004,1536,6,0.301565663
45,27,C_exp3,0.198148162,0.666818182,75.05,107,640f3b1f1b97231177a7b2f9,53,First,23,24,M,0.32246093750000004,1536,6,0.46867002
45,19,A_exp3,0.287037037,0.523181818,86.21,73,640f3b1f1b97231177a7b2f9,54,First,23,24,M,0.32246093750000004,1536,6,0.23614478099999997
45,25,C_exp3,0.167592614,0.630909091,78.2,99,640f3b1f1b97231177a7b2f9,55,First,23,24,M,0.32246093750000004,1536,6,0.463316477
45,12,D_exp3,0.008333347,0.3975,92.82,48,640f3b1f1b97231177a7b2f9,56,First,23,24,M,0.32246093750000004,1536,6,0.38916665300000003
45,5,B_exp3,0.125,0.271818182,96.99,18,640f3b1f1b97231177a7b2f9,57,First,23,24,M,0.32246093750000004,1536,6,0.14681818200000002
45,38,D_exp3,0.494444459,0.864318182,50.47,152,640f3b1f1b97231177a7b2f9,58,First,23,24,M,0.32246093750000004,1536,6,0.369873723
45,21,B_exp3,0.392592607,0.559090909,83.77,82,640f3b1f1b97231177a7b2f9,59,First,23,24,M,0.32246093750000004,1536,6,0.16649830200000004
45,24,A_exp3,0.43240745,0.612954545,79.66,93,640f3b1f1b97231177a7b2f9,60,First,23,24,M,0.32246093750000004,1536,6,0.180547095
45,28,D_exp3,0.40370369,0.684772727,73.36,112,640f3b1f1b97231177a7b2f9,61,First,23,24,M,0.32246093750000004,1536,6,0.281069037
45,40,C_exp3,0.45648151,0.900227273,43.56,159,640f3b1f1b97231177a7b2f9,62,First,23,24,M,0.32246093750000004,1536,6,0.44374576300000007
45,22,B_exp3,0.37962963,0.577045455,82.45,86,640f3b1f1b97231177a7b2f9,63,First,23,24,M,0.32246093750000004,1536,6,0.19741582500000004
45,32,A_exp3,0.547222208,0.756590909,65.73,125,640f3b1f1b97231177a7b2f9,64,First,23,24,M,0.32246093750000004,1536,6,0.20936870100000005
45,1,C_exp3,0.077777792,0.2,98.47,3,640f3b1f1b97231177a7b2f9,65,First,23,24,M,0.32246093750000004,1536,6,0.12222220800000001
45,26,D_exp3,0.130555577,0.648863636,76.62,104,640f3b1f1b97231177a7b2f9,66,First,23,24,M,0.32246093750000004,1536,6,0.518308059
45,25,A_exp3,0.40370369,0.630909091,78.2,97,640f3b1f1b97231177a7b2f9,67,First,23,24,M,0.32246093750000004,1536,6,0.22720540100000003
45,12,B_exp3,0.224074116,0.3975,92.82,46,640f3b1f1b97231177a7b2f9,68,First,23,24,M,0.32246093750000004,1536,6,0.17342588400000003
45,22,C_exp3,0.287037037,0.577045455,82.45,87,640f3b1f1b97231177a7b2f9,69,First,23,24,M,0.32246093750000004,1536,6,0.29000841800000005
45,21,D_exp3,0.123148141,0.559090909,83.77,84,640f3b1f1b97231177a7b2f9,70,First,23,24,M,0.32246093750000004,1536,6,0.43594276800000004
45,26,C_exp3,0.375925912,0.648863636,76.62,103,640f3b1f1b97231177a7b2f9,71,First,23,24,M,0.32246093750000004,1536,6,0.272937724
45,12,C_exp3,0.184259273,0.3975,92.82,47,640f3b1f1b97231177a7b2f9,72,First,23,24,M,0.32246093750000004,1536,6,0.21324072700000002
45,41,A_exp3,0.851851852,0.918181818,39.66,161,640f3b1f1b97231177a7b2f9,73,First,23,24,M,0.32246093750000004,1536,6,0.06632996599999996
45,44,A_exp3,0.919444473,0.972045455,23.65,173,640f3b1f1b97231177a7b2f9,74,First,23,24,M,0.32246093750000004,1536,6,0.05260098199999996
45,41,B_exp3,0.824074074,0.918181818,39.66,162,640f3b1f1b97231177a7b2f9,75,First,23,24,M,0.32246093750000004,1536,6,0.094107744
45,24,D_exp3,0.272222236,0.612954545,79.66,96,640f3b1f1b97231177a7b2f9,76,First,23,24,M,0.32246093750000004,1536,6,0.340732309
45,40,A_exp3,0.750925912,0.900227273,43.56,157,640f3b1f1b97231177a7b2f9,77,First,23,24,M,0.32246093750000004,1536,6,0.14930136100000002
45,20,A_exp3,0.233333376,0.541136364,85.04,77,640f3b1f1b97231177a7b2f9,78,First,23,24,M,0.32246093750000004,1536,6,0.30780298799999994
45,45,C_exp3,0.76944443,0.99,14.13,179,640f3b1f1b97231177a7b2f9,79,First,23,24,M,0.32246093750000004,1536,6,0.22055557000000003
45,2,D_exp3,0.113888882,0.217954545,98.2,8,640f3b1f1b97231177a7b2f9,80,First,23,24,M,0.32246093750000004,1536,6,0.104065663
45,37,C_exp3,0.262962977,0.846363636,53.4,147,640f3b1f1b97231177a7b2f9,81,First,23,24,M,0.32246093750000004,1536,6,0.583400659
45,33,D_exp3,0.233333376,0.774545455,63.57,132,640f3b1f1b97231177a7b2f9,82,First,23,24,M,0.32246093750000004,1536,6,0.541212079
45,43,A_exp3,0.758333347,0.954090909,30.04,169,640f3b1f1b97231177a7b2f9,83,First,23,24,M,0.32246093750000004,1536,6,0.19575756200000005
45,9,D_exp3,0.125,0.343636364,94.9,36,640f3b1f1b97231177a7b2f9,84,First,23,24,M,0.32246093750000004,1536,6,0.21863636400000003
45,44,D_exp3,0.567592621,0.972045455,23.65,176,640f3b1f1b97231177a7b2f9,85,First,23,24,M,0.32246093750000004,1536,6,0.404452834
45,35,B_exp3,0.496296282,0.810454545,58.87,138,640f3b1f1b97231177a7b2f9,86,First,23,24,M,0.32246093750000004,1536,6,0.31415826300000005
45,43,C_exp3,0.525925954,0.954090909,30.04,171,640f3b1f1b97231177a7b2f9,87,First,23,24,M,0.32246093750000004,1536,6,0.42816495500000007
45,5,C_exp3,0.081481474,0.271818182,96.99,19,640f3b1f1b97231177a7b2f9,88,First,23,24,M,0.32246093750000004,1536,6,0.19033670800000002
45,31,B_exp3,0.380555541,0.738636364,67.86,122,640f3b1f1b97231177a7b2f9,89,First,23,24,M,0.32246093750000004,1536,6,0.358080823
45,21,C_exp3,0.357407393,0.559090909,83.77,83,640f3b1f1b97231177a7b2f9,91,First,23,24,M,0.32246093750000004,1536,6,0.201683516
45,41,C_exp3,0.470370399,0.918181818,39.66,163,640f3b1f1b97231177a7b2f9,92,First,23,24,M,0.32246093750000004,1536,6,0.447811419
45,16,D_exp3,0.185185185,0.469318182,89.4,64,640f3b1f1b97231177a7b2f9,93,Second,23,24,M,0.32246093750000004,1536,6,0.28413299699999994
45,32,C_exp3,0.400925954,0.756590909,65.73,127,640f3b1f1b97231177a7b2f9,94,Second,23,24,M,0.32246093750000004,1536,6,0.35566495500000006
45,18,C_exp3,0.204629616,0.505227273,87.36,71,640f3b1f1b97231177a7b2f9,95,Second,23,24,M,0.32246093750000004,1536,6,0.3005976570000001
45,37,A_exp3,0.785185213,0.846363636,53.4,145,640f3b1f1b97231177a7b2f9,96,Second,23,24,M,0.32246093750000004,1536,6,0.06117842299999998
45,21,A_exp3,0.607407393,0.559090909,83.77,81,640f3b1f1b97231177a7b2f9,97,Second,23,24,M,0.32246093750000004,1536,6,-0.04831648399999999
45,45,A_exp3,0.92314812,0.99,14.13,177,640f3b1f1b97231177a7b2f9,98,Second,23,24,M,0.32246093750000004,1536,6,0.06685187999999997
45,42,D_exp3,0.852777834,0.936136364,35.25,168,640f3b1f1b97231177a7b2f9,99,Second,23,24,M,0.32246093750000004,1536,6,0.08335853000000004
45,16,A_exp3,0.292592578,0.469318182,89.4,61,640f3b1f1b97231177a7b2f9,100,Second,23,24,M,0.32246093750000004,1536,6,0.17672560399999998
45,18,B_exp3,0.294444473,0.505227273,87.36,70,640f3b1f1b97231177a7b2f9,101,Second,23,24,M,0.32246093750000004,1536,6,0.21078280000000005
45,23,B_exp3,0.344444487,0.595,81.13,90,640f3b1f1b97231177a7b2f9,102,Second,23,24,M,0.32246093750000004,1536,6,0.25055551299999995
45,43,D_exp3,0.535185213,0.954090909,30.04,172,640f3b1f1b97231177a7b2f9,103,Second,23,24,M,0.32246093750000004,1536,6,0.41890569600000005
45,5,D_exp3,0.10555557,0.271818182,96.99,20,640f3b1f1b97231177a7b2f9,104,Second,23,24,M,0.32246093750000004,1536,6,0.16626261200000003
45,34,B_exp3,0.509259259,0.7925,61.29,134,640f3b1f1b97231177a7b2f9,105,Second,23,24,M,0.32246093750000004,1536,6,0.28324074099999996
45,28,C_exp3,0.390740783,0.684772727,73.36,111,640f3b1f1b97231177a7b2f9,106,Second,23,24,M,0.32246093750000004,1536,6,0.29403194400000005
45,36,C_exp3,0.344444487,0.828409091,56.22,143,640f3b1f1b97231177a7b2f9,107,Second,23,24,M,0.32246093750000004,1536,6,0.483964604
45,11,D_exp3,0.059259273,0.379545455,93.55,44,640f3b1f1b97231177a7b2f9,109,Second,23,24,M,0.32246093750000004,1536,6,0.320286182
45,25,D_exp3,0.148148148,0.630909091,78.2,100,640f3b1f1b97231177a7b2f9,110,Second,23,24,M,0.32246093750000004,1536,6,0.48276094300000005
45,3,B_exp3,0.111111111,0.235909091,97.87,10,640f3b1f1b97231177a7b2f9,111,Second,23,24,M,0.32246093750000004,1536,6,0.12479797999999999
45,44,C_exp3,0.657407407,0.972045455,23.65,175,640f3b1f1b97231177a7b2f9,112,Second,23,24,M,0.32246093750000004,1536,6,0.31463804799999995
45,6,D_exp3,0.050000014,0.289772727,96.58,24,640f3b1f1b97231177a7b2f9,114,Second,23,24,M,0.32246093750000004,1536,6,0.239772713
45,31,C_exp3,0.327777792,0.738636364,67.86,123,640f3b1f1b97231177a7b2f9,115,Second,23,24,M,0.32246093750000004,1536,6,0.410858572
45,11,A_exp3,0.236111111,0.379545455,93.55,41,640f3b1f1b97231177a7b2f9,117,Second,23,24,M,0.32246093750000004,1536,6,0.14343434399999996
45,30,D_exp3,0.290740755,0.720681818,69.76,120,640f3b1f1b97231177a7b2f9,118,Second,23,24,M,0.32246093750000004,1536,6,0.42994106299999996
45,29,B_exp3,0.517592607,0.702727273,71.6,114,640f3b1f1b97231177a7b2f9,119,Second,23,24,M,0.32246093750000004,1536,6,0.18513466600000006
45,33,B_exp3,0.683333362,0.774545455,63.57,130,640f3b1f1b97231177a7b2f9,120,Second,23,24,M,0.32246093750000004,1536,6,0.091212093
45,7,B_exp3,0.339814857,0.307727273,96.03,26,640f3b1f1b97231177a7b2f9,121,Second,23,24,M,0.32246093750000004,1536,6,-0.032087584
45,8,C_exp3,0.190740762,0.325681818,95.52,31,640f3b1f1b97231177a7b2f9,122,Second,23,24,M,0.32246093750000004,1536,6,0.134941056
45,7,D_exp3,0.10833334,0.307727273,96.03,28,640f3b1f1b97231177a7b2f9,123,Second,23,24,M,0.32246093750000004,1536,6,0.19939393300000002
45,4,D_exp3,0.027777778,0.253863636,97.45,16,640f3b1f1b97231177a7b2f9,124,Second,23,24,M,0.32246093750000004,1536,6,0.226085858
45,17,D_exp3,0.043518526,0.487272727,88.33,68,640f3b1f1b97231177a7b2f9,125,Second,23,24,M,0.32246093750000004,1536,6,0.443754201
45,38,C_exp3,0.496296282,0.864318182,50.47,151,640f3b1f1b97231177a7b2f9,126,Second,23,24,M,0.32246093750000004,1536,6,0.3680219
45,6,C_exp3,0.130555577,0.289772727,96.58,23,640f3b1f1b97231177a7b2f9,127,Second,23,24,M,0.32246093750000004,1536,6,0.15921715
45,26,B_exp3,0.496296282,0.648863636,76.62,102,640f3b1f1b97231177a7b2f9,128,Second,23,24,M,0.32246093750000004,1536,6,0.152567354
45,45,D_exp3,0.909259231,0.99,14.13,180,640f3b1f1b97231177a7b2f9,129,Second,23,24,M,0.32246093750000004,1536,6,0.08074076900000005
45,16,C_exp3,0.281481496,0.469318182,89.4,63,640f3b1f1b97231177a7b2f9,130,Second,23,24,M,0.32246093750000004,1536,6,0.18783668599999997
45,12,A_exp3,0.169444437,0.3975,92.82,45,640f3b1f1b97231177a7b2f9,131,Second,23,24,M,0.32246093750000004,1536,6,0.22805556300000002
45,13,B_exp3,0.161111125,0.415454545,91.98,50,640f3b1f1b97231177a7b2f9,132,Second,23,24,M,0.32246093750000004,1536,6,0.25434342
45,26,A_exp3,0.548148191,0.648863636,76.62,101,640f3b1f1b97231177a7b2f9,133,Second,23,24,M,0.32246093750000004,1536,6,0.10071544499999996
45,45,B_exp3,0.809259344,0.99,14.13,178,640f3b1f1b97231177a7b2f9,134,Second,23,24,M,0.32246093750000004,1536,6,0.180740656
45,36,B_exp3,0.731481481,0.828409091,56.22,142,640f3b1f1b97231177a7b2f9,135,Second,23,24,M,0.32246093750000004,1536,6,0.09692761000000005
45,44,B_exp3,0.812962991,0.972045455,23.65,174,640f3b1f1b97231177a7b2f9,136,Second,23,24,M,0.32246093750000004,1536,6,0.15908246399999992
45,7,C_exp3,0.127777771,0.307727273,96.03,27,640f3b1f1b97231177a7b2f9,137,Second,23,24,M,0.32246093750000004,1536,6,0.179949502
45,20,B_exp3,0.296296296,0.541136364,85.04,78,640f3b1f1b97231177a7b2f9,138,Second,23,24,M,0.32246093750000004,1536,6,0.24484006799999997
45,10,A_exp3,0.311111097,0.361590909,94.23,37,640f3b1f1b97231177a7b2f9,139,Second,23,24,M,0.32246093750000004,1536,6,0.05047981200000001
45,25,B_exp3,0.37962963,0.630909091,78.2,98,640f3b1f1b97231177a7b2f9,140,Second,23,24,M,0.32246093750000004,1536,6,0.25127946100000004
45,27,B_exp3,0.380555541,0.666818182,75.05,106,640f3b1f1b97231177a7b2f9,141,Second,23,24,M,0.32246093750000004,1536,6,0.286262641
45,42,A_exp3,0.659259302,0.936136364,35.25,165,640f3b1f1b97231177a7b2f9,142,Second,23,24,M,0.32246093750000004,1536,6,0.27687706199999995
45,30,C_exp3,0.345370399,0.720681818,69.76,119,640f3b1f1b97231177a7b2f9,143,Second,23,24,M,0.32246093750000004,1536,6,0.375311419
45,14,A_exp3,0.244444459,0.433409091,91.2,53,640f3b1f1b97231177a7b2f9,144,Second,23,24,M,0.32246093750000004,1536,6,0.18896463200000002
45,41,D_exp3,0.39907406,0.918181818,39.66,164,640f3b1f1b97231177a7b2f9,145,Second,23,24,M,0.32246093750000004,1536,6,0.519107758
45,7,A_exp3,0.289814843,0.307727273,96.03,25,640f3b1f1b97231177a7b2f9,146,Second,23,24,M,0.32246093750000004,1536,6,0.017912430000000035
45,36,D_exp3,0.345370399,0.828409091,56.22,144,640f3b1f1b97231177a7b2f9,147,Second,23,24,M,0.32246093750000004,1536,6,0.48303869200000005
45,20,C_exp3,0.11851851100000001,0.541136364,85.04,79,640f3b1f1b97231177a7b2f9,148,Second,23,24,M,0.32246093750000004,1536,6,0.422617853
45,30,A_exp3,0.72592594,0.720681818,69.76,117,640f3b1f1b97231177a7b2f9,150,Second,23,24,M,0.32246093750000004,1536,6,-0.005244122000000018
45,40,D_exp3,0.47129631,0.900227273,43.56,160,640f3b1f1b97231177a7b2f9,151,Second,23,24,M,0.32246093750000004,1536,6,0.42893096300000005
45,38,B_exp3,0.646296325,0.864318182,50.47,150,640f3b1f1b97231177a7b2f9,152,Second,23,24,M,0.32246093750000004,1536,6,0.21802185699999999
45,10,C_exp3,0.119444459,0.361590909,94.23,39,640f3b1f1b97231177a7b2f9,153,Second,23,24,M,0.32246093750000004,1536,6,0.24214645
45,32,B_exp3,0.499074088,0.756590909,65.73,126,640f3b1f1b97231177a7b2f9,154,Second,23,24,M,0.32246093750000004,1536,6,0.257516821
45,36,A_exp3,0.681481467,0.828409091,56.22,141,640f3b1f1b97231177a7b2f9,155,Second,23,24,M,0.32246093750000004,1536,6,0.14692762400000003
45,23,A_exp3,0.481481481,0.595,81.13,89,640f3b1f1b97231177a7b2f9,156,Second,23,24,M,0.32246093750000004,1536,6,0.11351851899999998
45,33,C_exp3,0.328703704,0.774545455,63.57,131,640f3b1f1b97231177a7b2f9,157,Second,23,24,M,0.32246093750000004,1536,6,0.44584175100000006
45,4,C_exp3,0.184259273,0.253863636,97.45,15,640f3b1f1b97231177a7b2f9,158,Second,23,24,M,0.32246093750000004,1536,6,0.069604363
45,1,A_exp3,0.13703703,0.2,98.47,1,640f3b1f1b97231177a7b2f9,159,Second,23,24,M,0.32246093750000004,1536,6,0.06296297000000001
45,34,D_exp3,0.232407393,0.7925,61.29,136,640f3b1f1b97231177a7b2f9,160,Second,23,24,M,0.32246093750000004,1536,6,0.560092607
45,13,A_exp3,0.12962963,0.415454545,91.98,49,640f3b1f1b97231177a7b2f9,161,Second,23,24,M,0.32246093750000004,1536,6,0.285824915
45,9,C_exp3,0.036111125,0.343636364,94.9,35,640f3b1f1b97231177a7b2f9,162,Second,23,24,M,0.32246093750000004,1536,6,0.307525239
45,42,C_exp3,0.515740783,0.936136364,35.25,167,640f3b1f1b97231177a7b2f9,163,Second,23,24,M,0.32246093750000004,1536,6,0.42039558099999996
45,11,C_exp3,0.106481481,0.379545455,93.55,43,640f3b1f1b97231177a7b2f9,164,Second,23,24,M,0.32246093750000004,1536,6,0.273063974
45,18,D_exp3,0.193518533,0.505227273,87.36,72,640f3b1f1b97231177a7b2f9,165,Second,23,24,M,0.32246093750000004,1536,6,0.31170874000000004
45,31,D_exp3,0.349074116,0.738636364,67.86,124,640f3b1f1b97231177a7b2f9,166,Second,23,24,M,0.32246093750000004,1536,6,0.389562248
45,32,D_exp3,0.35555557,0.756590909,65.73,128,640f3b1f1b97231177a7b2f9,167,Second,23,24,M,0.32246093750000004,1536,6,0.40103533900000005
45,22,A_exp3,0.348148134,0.577045455,82.45,85,640f3b1f1b97231177a7b2f9,168,Second,23,24,M,0.32246093750000004,1536,6,0.22889732100000004
45,24,B_exp3,0.414814843,0.612954545,79.66,94,640f3b1f1b97231177a7b2f9,169,Second,23,24,M,0.32246093750000004,1536,6,0.19813970200000003
45,31,A_exp3,0.501851894,0.738636364,67.86,121,640f3b1f1b97231177a7b2f9,170,Second,23,24,M,0.32246093750000004,1536,6,0.23678447000000002
45,14,C_exp3,0.267592607,0.433409091,91.2,55,640f3b1f1b97231177a7b2f9,171,Second,23,24,M,0.32246093750000004,1536,6,0.16581648400000004
45,14,D_exp3,0.163888896,0.433409091,91.2,56,640f3b1f1b97231177a7b2f9,172,Second,23,24,M,0.32246093750000004,1536,6,0.269520195
45,15,D_exp3,0.102777799,0.451363636,90.29,60,640f3b1f1b97231177a7b2f9,173,Second,23,24,M,0.32246093750000004,1536,6,0.348585837
45,15,A_exp3,0.199074074,0.451363636,90.29,57,640f3b1f1b97231177a7b2f9,174,Second,23,24,M,0.32246093750000004,1536,6,0.252289562
45,9,B_exp3,0.203703704,0.343636364,94.9,34,640f3b1f1b97231177a7b2f9,175,Second,23,24,M,0.32246093750000004,1536,6,0.13993266000000001
45,15,B_exp3,0.237963005,0.451363636,90.29,58,640f3b1f1b97231177a7b2f9,176,Second,23,24,M,0.32246093750000004,1536,6,0.213400631
45,29,C_exp3,0.280555584,0.702727273,71.6,115,640f3b1f1b97231177a7b2f9,177,Second,23,24,M,0.32246093750000004,1536,6,0.422171689
45,20,D_exp3,0.187962956,0.541136364,85.04,80,640f3b1f1b97231177a7b2f9,178,Second,23,24,M,0.32246093750000004,1536,6,0.35317340799999997
45,3,C_exp3,0.158333355,0.235909091,97.87,11,640f3b1f1b97231177a7b2f9,179,Second,23,24,M,0.32246093750000004,1536,6,0.07757573599999998
45,29,D_exp3,0.149074095,0.702727273,71.6,116,640f3b1f1b97231177a7b2f9,180,Second,23,24,M,0.32246093750000004,1536,6,0.553653178
45,1,D_exp3,0.125925947,0.2,98.47,4,640f3b1f1b97231177a7b2f9,181,Second,23,24,M,0.32246093750000004,1536,6,0.074074053
45,35,D_exp3,0.374074088,0.810454545,58.87,140,640f3b1f1b97231177a7b2f9,182,Second,23,24,M,0.32246093750000004,1536,6,0.436380457
45,3,D_exp3,0.11296297,0.235909091,97.87,12,640f3b1f1b97231177a7b2f9,183,Second,23,24,M,0.32246093750000004,1536,6,0.12294612099999999
45,6,A_exp3,0.164814808,0.289772727,96.58,21,640f3b1f1b97231177a7b2f9,184,Second,23,24,M,0.32246093750000004,1536,6,0.124957919
67,28,D_exp3,0.551111111,0.684772727,73.36,112,641047cd7900abdc5ccdbf10,0,First,24,21,F,0.34219444444444436,1440,6,0.13366161600000004
67,9,C_exp3,0.42,0.343636364,94.9,35,641047cd7900abdc5ccdbf10,1,First,24,21,F,0.34219444444444436,1440,6,-0.07636363599999996
67,38,A_exp3,0.783333333,0.864318182,50.47,149,641047cd7900abdc5ccdbf10,3,First,24,21,F,0.34219444444444436,1440,6,0.08098484900000003
67,2,C_exp3,0.315555556,0.217954545,98.2,7,641047cd7900abdc5ccdbf10,4,First,24,21,F,0.34219444444444436,1440,6,-0.09760101100000002
67,9,B_exp3,0.315555556,0.343636364,94.9,34,641047cd7900abdc5ccdbf10,5,First,24,21,F,0.34219444444444436,1440,6,0.028080808000000013
67,11,D_exp3,0.278888889,0.379545455,93.55,44,641047cd7900abdc5ccdbf10,6,First,24,21,F,0.34219444444444436,1440,6,0.100656566
67,42,A_exp3,0.906666667,0.936136364,35.25,165,641047cd7900abdc5ccdbf10,7,First,24,21,F,0.34219444444444436,1440,6,0.029469697000000017
67,18,D_exp3,0.376666667,0.505227273,87.36,72,641047cd7900abdc5ccdbf10,8,First,24,21,F,0.34219444444444436,1440,6,0.12856060600000002
67,20,C_exp3,0.318888889,0.541136364,85.04,79,641047cd7900abdc5ccdbf10,9,First,24,21,F,0.34219444444444436,1440,6,0.22224747499999997
67,1,C_exp3,0.287777778,0.2,98.47,3,641047cd7900abdc5ccdbf10,10,First,24,21,F,0.34219444444444436,1440,6,-0.08777777799999997
67,26,D_exp3,0.36,0.648863636,76.62,104,641047cd7900abdc5ccdbf10,11,First,24,21,F,0.34219444444444436,1440,6,0.288863636
67,11,A_exp3,0.575555556,0.379545455,93.55,41,641047cd7900abdc5ccdbf10,12,First,24,21,F,0.34219444444444436,1440,6,-0.196010101
67,20,D_exp3,0.331111111,0.541136364,85.04,80,641047cd7900abdc5ccdbf10,13,First,24,21,F,0.34219444444444436,1440,6,0.21002525299999997
67,33,C_exp3,0.672222222,0.774545455,63.57,131,641047cd7900abdc5ccdbf10,14,First,24,21,F,0.34219444444444436,1440,6,0.10232323300000001
67,6,D_exp3,0.394444444,0.289772727,96.58,24,641047cd7900abdc5ccdbf10,15,First,24,21,F,0.34219444444444436,1440,6,-0.104671717
67,10,D_exp3,0.44,0.361590909,94.23,40,641047cd7900abdc5ccdbf10,16,First,24,21,F,0.34219444444444436,1440,6,-0.07840909099999999
67,10,A_exp3,0.588888889,0.361590909,94.23,37,641047cd7900abdc5ccdbf10,17,First,24,21,F,0.34219444444444436,1440,6,-0.22729798
67,14,B_exp3,0.615555556,0.433409091,91.2,54,641047cd7900abdc5ccdbf10,18,First,24,21,F,0.34219444444444436,1440,6,-0.18214646499999998
67,25,A_exp3,0.79,0.630909091,78.2,97,641047cd7900abdc5ccdbf10,19,First,24,21,F,0.34219444444444436,1440,6,-0.159090909
67,36,A_exp3,0.906666667,0.828409091,56.22,141,641047cd7900abdc5ccdbf10,20,First,24,21,F,0.34219444444444436,1440,6,-0.07825757599999994
67,27,B_exp3,0.755555556,0.666818182,75.05,106,641047cd7900abdc5ccdbf10,21,First,24,21,F,0.34219444444444436,1440,6,-0.08873737400000004
67,8,B_exp3,0.417777778,0.325681818,95.52,30,641047cd7900abdc5ccdbf10,23,First,24,21,F,0.34219444444444436,1440,6,-0.09209595999999998
67,24,C_exp3,0.565555556,0.612954545,79.66,95,641047cd7900abdc5ccdbf10,25,First,24,21,F,0.34219444444444436,1440,6,0.04739898900000006
67,9,A_exp3,0.453333333,0.343636364,94.9,33,641047cd7900abdc5ccdbf10,26,First,24,21,F,0.34219444444444436,1440,6,-0.10969696899999998
67,41,D_exp3,0.797777778,0.918181818,39.66,164,641047cd7900abdc5ccdbf10,27,First,24,21,F,0.34219444444444436,1440,6,0.12040403999999993
67,43,C_exp3,0.865555556,0.954090909,30.04,171,641047cd7900abdc5ccdbf10,28,First,24,21,F,0.34219444444444436,1440,6,0.08853535300000004
67,38,C_exp3,0.688888889,0.864318182,50.47,151,641047cd7900abdc5ccdbf10,29,First,24,21,F,0.34219444444444436,1440,6,0.175429293
67,45,D_exp3,0.957777778,0.99,14.13,180,641047cd7900abdc5ccdbf10,30,First,24,21,F,0.34219444444444436,1440,6,0.03222222200000002
67,29,B_exp3,0.59,0.702727273,71.6,114,641047cd7900abdc5ccdbf10,31,First,24,21,F,0.34219444444444436,1440,6,0.11272727300000007
67,44,D_exp3,0.932222222,0.972045455,23.65,176,641047cd7900abdc5ccdbf10,32,First,24,21,F,0.34219444444444436,1440,6,0.0398232329999999
67,26,A_exp3,0.584444444,0.648863636,76.62,101,641047cd7900abdc5ccdbf10,33,First,24,21,F,0.34219444444444436,1440,6,0.06441919200000001
67,37,C_exp3,0.623333333,0.846363636,53.4,147,641047cd7900abdc5ccdbf10,34,First,24,21,F,0.34219444444444436,1440,6,0.22303030299999993
67,17,B_exp3,0.451111111,0.487272727,88.33,66,641047cd7900abdc5ccdbf10,35,First,24,21,F,0.34219444444444436,1440,6,0.03616161600000001
67,24,D_exp3,0.356666667,0.612954545,79.66,96,641047cd7900abdc5ccdbf10,36,First,24,21,F,0.34219444444444436,1440,6,0.256287878
67,6,C_exp3,0.316666667,0.289772727,96.58,23,641047cd7900abdc5ccdbf10,37,First,24,21,F,0.34219444444444436,1440,6,-0.026893940000000005
67,40,B_exp3,0.897777778,0.900227273,43.56,158,641047cd7900abdc5ccdbf10,38,First,24,21,F,0.34219444444444436,1440,6,0.0024494950000000237
67,33,D_exp3,0.637777778,0.774545455,63.57,132,641047cd7900abdc5ccdbf10,39,First,24,21,F,0.34219444444444436,1440,6,0.13676767700000003
67,41,B_exp3,0.832222222,0.918181818,39.66,162,641047cd7900abdc5ccdbf10,40,First,24,21,F,0.34219444444444436,1440,6,0.08595959600000003
67,3,C_exp3,0.292222222,0.235909091,97.87,11,641047cd7900abdc5ccdbf10,41,First,24,21,F,0.34219444444444436,1440,6,-0.05631313099999999
67,31,B_exp3,0.75,0.738636364,67.86,122,641047cd7900abdc5ccdbf10,42,First,24,21,F,0.34219444444444436,1440,6,-0.01136363600000001
67,21,D_exp3,0.374444444,0.559090909,83.77,84,641047cd7900abdc5ccdbf10,43,First,24,21,F,0.34219444444444436,1440,6,0.18464646500000004
67,34,C_exp3,0.674444444,0.7925,61.29,135,641047cd7900abdc5ccdbf10,44,First,24,21,F,0.34219444444444436,1440,6,0.11805555599999995
67,13,A_exp3,0.381111111,0.415454545,91.98,49,641047cd7900abdc5ccdbf10,45,First,24,21,F,0.34219444444444436,1440,6,0.034343434000000006
67,5,C_exp3,0.266666667,0.271818182,96.99,19,641047cd7900abdc5ccdbf10,46,First,24,21,F,0.34219444444444436,1440,6,0.005151514999999995
67,20,B_exp3,0.607777778,0.541136364,85.04,78,641047cd7900abdc5ccdbf10,47,First,24,21,F,0.34219444444444436,1440,6,-0.06664141400000001
67,1,B_exp3,0.404444444,0.2,98.47,2,641047cd7900abdc5ccdbf10,48,First,24,21,F,0.34219444444444436,1440,6,-0.204444444
67,33,B_exp3,0.765555556,0.774545455,63.57,130,641047cd7900abdc5ccdbf10,49,First,24,21,F,0.34219444444444436,1440,6,0.008989899000000023
67,14,C_exp3,0.392222222,0.433409091,91.2,55,641047cd7900abdc5ccdbf10,50,First,24,21,F,0.34219444444444436,1440,6,0.041186869000000015
67,4,A_exp3,0.328888889,0.253863636,97.45,13,641047cd7900abdc5ccdbf10,51,First,24,21,F,0.34219444444444436,1440,6,-0.07502525300000001
67,18,A_exp3,0.661111111,0.505227273,87.36,69,641047cd7900abdc5ccdbf10,52,First,24,21,F,0.34219444444444436,1440,6,-0.15588383799999994
67,35,A_exp3,0.811111111,0.810454545,58.87,137,641047cd7900abdc5ccdbf10,53,First,24,21,F,0.34219444444444436,1440,6,-6.565659999999696e-4
67,43,A_exp3,0.922222222,0.954090909,30.04,169,641047cd7900abdc5ccdbf10,54,First,24,21,F,0.34219444444444436,1440,6,0.03186868700000001
67,12,B_exp3,0.413333333,0.3975,92.82,46,641047cd7900abdc5ccdbf10,55,First,24,21,F,0.34219444444444436,1440,6,-0.015833333000000005
67,2,A_exp3,0.274444444,0.217954545,98.2,5,641047cd7900abdc5ccdbf10,56,First,24,21,F,0.34219444444444436,1440,6,-0.05648989900000001
67,36,B_exp3,0.8,0.828409091,56.22,142,641047cd7900abdc5ccdbf10,57,First,24,21,F,0.34219444444444436,1440,6,0.028409090999999997
67,44,B_exp3,0.94,0.972045455,23.65,174,641047cd7900abdc5ccdbf10,58,First,24,21,F,0.34219444444444436,1440,6,0.032045455
67,15,D_exp3,0.145555556,0.451363636,90.29,60,641047cd7900abdc5ccdbf10,59,First,24,21,F,0.34219444444444436,1440,6,0.30580808000000004
67,35,D_exp3,0.368888889,0.810454545,58.87,140,641047cd7900abdc5ccdbf10,60,First,24,21,F,0.34219444444444436,1440,6,0.44156565600000003
67,43,D_exp3,0.851111111,0.954090909,30.04,172,641047cd7900abdc5ccdbf10,61,First,24,21,F,0.34219444444444436,1440,6,0.10297979800000001
67,17,A_exp3,0.417777778,0.487272727,88.33,65,641047cd7900abdc5ccdbf10,62,First,24,21,F,0.34219444444444436,1440,6,0.06949494900000003
67,11,B_exp3,0.408888889,0.379545455,93.55,42,641047cd7900abdc5ccdbf10,63,First,24,21,F,0.34219444444444436,1440,6,-0.029343434
67,21,A_exp3,0.64,0.559090909,83.77,81,641047cd7900abdc5ccdbf10,64,First,24,21,F,0.34219444444444436,1440,6,-0.08090909099999999
67,8,D_exp3,0.254444444,0.325681818,95.52,32,641047cd7900abdc5ccdbf10,65,First,24,21,F,0.34219444444444436,1440,6,0.07123737400000002
67,35,C_exp3,0.668888889,0.810454545,58.87,139,641047cd7900abdc5ccdbf10,66,First,24,21,F,0.34219444444444436,1440,6,0.14156565600000004
67,23,D_exp3,0.441111111,0.595,81.13,92,641047cd7900abdc5ccdbf10,67,First,24,21,F,0.34219444444444436,1440,6,0.15388888899999997
67,17,D_exp3,0.393333333,0.487272727,88.33,68,641047cd7900abdc5ccdbf10,68,First,24,21,F,0.34219444444444436,1440,6,0.09393939400000001
67,30,D_exp3,0.674444444,0.720681818,69.76,120,641047cd7900abdc5ccdbf10,69,First,24,21,F,0.34219444444444436,1440,6,0.04623737399999994
67,31,A_exp3,0.848888889,0.738636364,67.86,121,641047cd7900abdc5ccdbf10,70,First,24,21,F,0.34219444444444436,1440,6,-0.11025252500000005
67,15,B_exp3,0.648888889,0.451363636,90.29,58,641047cd7900abdc5ccdbf10,71,First,24,21,F,0.34219444444444436,1440,6,-0.19752525299999996
67,7,A_exp3,0.356666667,0.307727273,96.03,25,641047cd7900abdc5ccdbf10,72,First,24,21,F,0.34219444444444436,1440,6,-0.04893939399999997
67,8,C_exp3,0.256666667,0.325681818,95.52,31,641047cd7900abdc5ccdbf10,73,First,24,21,F,0.34219444444444436,1440,6,0.069015151
67,29,A_exp3,0.743333333,0.702727273,71.6,113,641047cd7900abdc5ccdbf10,74,First,24,21,F,0.34219444444444436,1440,6,-0.04060606
67,37,D_exp3,0.772222222,0.846363636,53.4,148,641047cd7900abdc5ccdbf10,75,First,24,21,F,0.34219444444444436,1440,6,0.07414141399999996
67,42,B_exp3,0.908888889,0.936136364,35.25,166,641047cd7900abdc5ccdbf10,76,First,24,21,F,0.34219444444444436,1440,6,0.02724747500000002
67,4,D_exp3,0.426666667,0.253863636,97.45,16,641047cd7900abdc5ccdbf10,77,First,24,21,F,0.34219444444444436,1440,6,-0.172803031
67,36,C_exp3,0.661111111,0.828409091,56.22,143,641047cd7900abdc5ccdbf10,78,First,24,21,F,0.34219444444444436,1440,6,0.16729798000000007
67,2,D_exp3,0.335555556,0.217954545,98.2,8,641047cd7900abdc5ccdbf10,79,First,24,21,F,0.34219444444444436,1440,6,-0.11760101099999998
67,34,D_exp3,0.71,0.7925,61.29,136,641047cd7900abdc5ccdbf10,80,First,24,21,F,0.34219444444444436,1440,6,0.08250000000000002
67,44,A_exp3,0.947777778,0.972045455,23.65,173,641047cd7900abdc5ccdbf10,81,First,24,21,F,0.34219444444444436,1440,6,0.024267676999999988
67,19,C_exp3,0.492222222,0.523181818,86.21,75,641047cd7900abdc5ccdbf10,82,First,24,21,F,0.34219444444444436,1440,6,0.030959595999999978
67,25,D_exp3,0.401111111,0.630909091,78.2,100,641047cd7900abdc5ccdbf10,83,First,24,21,F,0.34219444444444436,1440,6,0.22979798
67,45,B_exp3,0.981111111,0.99,14.13,178,641047cd7900abdc5ccdbf10,84,First,24,21,F,0.34219444444444436,1440,6,0.008888888999999955
67,23,B_exp3,0.61,0.595,81.13,90,641047cd7900abdc5ccdbf10,85,First,24,21,F,0.34219444444444436,1440,6,-0.015000000000000013
67,32,D_exp3,0.601111111,0.756590909,65.73,128,641047cd7900abdc5ccdbf10,86,First,24,21,F,0.34219444444444436,1440,6,0.155479798
67,29,C_exp3,0.424444444,0.702727273,71.6,115,641047cd7900abdc5ccdbf10,87,First,24,21,F,0.34219444444444436,1440,6,0.27828282900000006
67,15,C_exp3,0.371111111,0.451363636,90.29,59,641047cd7900abdc5ccdbf10,88,First,24,21,F,0.34219444444444436,1440,6,0.08025252500000002
67,4,B_exp3,0.306666667,0.253863636,97.45,14,641047cd7900abdc5ccdbf10,89,First,24,21,F,0.34219444444444436,1440,6,-0.052803031
67,43,B_exp3,0.932222222,0.954090909,30.04,170,641047cd7900abdc5ccdbf10,90,First,24,21,F,0.34219444444444436,1440,6,0.021868686999999998
67,22,C_exp3,0.575555556,0.577045455,82.45,87,641047cd7900abdc5ccdbf10,91,First,24,21,F,0.34219444444444436,1440,6,0.0014898990000000722
67,7,D_exp3,0.402222222,0.307727273,96.03,28,641047cd7900abdc5ccdbf10,92,First,24,21,F,0.34219444444444436,1440,6,-0.094494949
67,19,D_exp3,0.382222222,0.523181818,86.21,76,641047cd7900abdc5ccdbf10,93,Second,24,21,F,0.34219444444444436,1440,6,0.14095959599999996
67,19,A_exp3,0.653333333,0.523181818,86.21,73,641047cd7900abdc5ccdbf10,94,Second,24,21,F,0.34219444444444436,1440,6,-0.130151515
67,8,A_exp3,0.433333333,0.325681818,95.52,29,641047cd7900abdc5ccdbf10,95,Second,24,21,F,0.34219444444444436,1440,6,-0.10765151499999998
67,38,D_exp3,0.761111111,0.864318182,50.47,152,641047cd7900abdc5ccdbf10,96,Second,24,21,F,0.34219444444444436,1440,6,0.10320707100000004
67,38,B_exp3,0.902222222,0.864318182,50.47,150,641047cd7900abdc5ccdbf10,97,Second,24,21,F,0.34219444444444436,1440,6,-0.03790404000000003
67,22,A_exp3,0.648888889,0.577045455,82.45,85,641047cd7900abdc5ccdbf10,98,Second,24,21,F,0.34219444444444436,1440,6,-0.07184343399999993
67,25,C_exp3,0.446666667,0.630909091,78.2,99,641047cd7900abdc5ccdbf10,99,Second,24,21,F,0.34219444444444436,1440,6,0.18424242400000002
67,10,B_exp3,0.348888889,0.361590909,94.23,38,641047cd7900abdc5ccdbf10,100,Second,24,21,F,0.34219444444444436,1440,6,0.012702020000000036
67,24,A_exp3,0.777777778,0.612954545,79.66,93,641047cd7900abdc5ccdbf10,102,Second,24,21,F,0.34219444444444436,1440,6,-0.164823233
67,6,B_exp3,0.442222222,0.289772727,96.58,22,641047cd7900abdc5ccdbf10,103,Second,24,21,F,0.34219444444444436,1440,6,-0.152449495
67,33,A_exp3,0.791111111,0.774545455,63.57,129,641047cd7900abdc5ccdbf10,104,Second,24,21,F,0.34219444444444436,1440,6,-0.01656565599999993
67,11,C_exp3,0.31,0.379545455,93.55,43,641047cd7900abdc5ccdbf10,105,Second,24,21,F,0.34219444444444436,1440,6,0.06954545499999998
67,42,D_exp3,0.814444444,0.936136364,35.25,168,641047cd7900abdc5ccdbf10,106,Second,24,21,F,0.34219444444444436,1440,6,0.12169191999999995
67,34,A_exp3,0.898888889,0.7925,61.29,133,641047cd7900abdc5ccdbf10,107,Second,24,21,F,0.34219444444444436,1440,6,-0.10638888899999999
67,23,C_exp3,0.644444444,0.595,81.13,91,641047cd7900abdc5ccdbf10,108,Second,24,21,F,0.34219444444444436,1440,6,-0.04944444400000003
67,12,D_exp3,0.448888889,0.3975,92.82,48,641047cd7900abdc5ccdbf10,109,Second,24,21,F,0.34219444444444436,1440,6,-0.05138888899999999
67,39,C_exp3,0.713333333,0.882272727,47.19,155,641047cd7900abdc5ccdbf10,110,Second,24,21,F,0.34219444444444436,1440,6,0.16893939400000002
67,13,D_exp3,0.424444444,0.415454545,91.98,52,641047cd7900abdc5ccdbf10,111,Second,24,21,F,0.34219444444444436,1440,6,-0.008989898999999968
67,2,B_exp3,0.358888889,0.217954545,98.2,6,641047cd7900abdc5ccdbf10,112,Second,24,21,F,0.34219444444444436,1440,6,-0.140934344
67,22,D_exp3,0.396666667,0.577045455,82.45,88,641047cd7900abdc5ccdbf10,113,Second,24,21,F,0.34219444444444436,1440,6,0.18037878800000007
67,32,B_exp3,0.755555556,0.756590909,65.73,126,641047cd7900abdc5ccdbf10,114,Second,24,21,F,0.34219444444444436,1440,6,0.0010353530000000166
67,27,A_exp3,0.803333333,0.666818182,75.05,105,641047cd7900abdc5ccdbf10,115,Second,24,21,F,0.34219444444444436,1440,6,-0.136515151
67,13,C_exp3,0.595555556,0.415454545,91.98,51,641047cd7900abdc5ccdbf10,116,Second,24,21,F,0.34219444444444436,1440,6,-0.18010101099999998
67,9,D_exp3,0.456666667,0.343636364,94.9,36,641047cd7900abdc5ccdbf10,117,Second,24,21,F,0.34219444444444436,1440,6,-0.113030303
67,7,C_exp3,0.412222222,0.307727273,96.03,27,641047cd7900abdc5ccdbf10,118,Second,24,21,F,0.34219444444444436,1440,6,-0.104494949
67,7,B_exp3,0.395555556,0.307727273,96.03,26,641047cd7900abdc5ccdbf10,119,Second,24,21,F,0.34219444444444436,1440,6,-0.08782828299999995
67,5,A_exp3,0.318888889,0.271818182,96.99,17,641047cd7900abdc5ccdbf10,120,Second,24,21,F,0.34219444444444436,1440,6,-0.04707070699999999
67,39,B_exp3,0.858888889,0.882272727,47.19,154,641047cd7900abdc5ccdbf10,121,Second,24,21,F,0.34219444444444436,1440,6,0.02338383799999999
67,29,D_exp3,0.653333333,0.702727273,71.6,116,641047cd7900abdc5ccdbf10,122,Second,24,21,F,0.34219444444444436,1440,6,0.04939394000000008
67,30,B_exp3,0.766666667,0.720681818,69.76,118,641047cd7900abdc5ccdbf10,123,Second,24,21,F,0.34219444444444436,1440,6,-0.045984848999999994
67,10,C_exp3,0.466666667,0.361590909,94.23,39,641047cd7900abdc5ccdbf10,124,Second,24,21,F,0.34219444444444436,1440,6,-0.10507575799999996
67,18,C_exp3,0.39,0.505227273,87.36,71,641047cd7900abdc5ccdbf10,125,Second,24,21,F,0.34219444444444436,1440,6,0.11522727300000002
67,31,C_exp3,0.61,0.738636364,67.86,123,641047cd7900abdc5ccdbf10,126,Second,24,21,F,0.34219444444444436,1440,6,0.128636364
67,32,C_exp3,0.671111111,0.756590909,65.73,127,641047cd7900abdc5ccdbf10,127,Second,24,21,F,0.34219444444444436,1440,6,0.08547979800000005
67,18,B_exp3,0.623333333,0.505227273,87.36,70,641047cd7900abdc5ccdbf10,128,Second,24,21,F,0.34219444444444436,1440,6,-0.11810606000000001
67,16,D_exp3,0.412222222,0.469318182,89.4,64,641047cd7900abdc5ccdbf10,129,Second,24,21,F,0.34219444444444436,1440,6,0.057095959999999946
67,15,A_exp3,0.587777778,0.451363636,90.29,57,641047cd7900abdc5ccdbf10,130,Second,24,21,F,0.34219444444444436,1440,6,-0.13641414199999996
67,20,A_exp3,0.657777778,0.541136364,85.04,77,641047cd7900abdc5ccdbf10,132,Second,24,21,F,0.34219444444444436,1440,6,-0.11664141400000005
67,44,C_exp3,0.893333333,0.972045455,23.65,175,641047cd7900abdc5ccdbf10,133,Second,24,21,F,0.34219444444444436,1440,6,0.078712122
67,16,A_exp3,0.671111111,0.469318182,89.4,61,641047cd7900abdc5ccdbf10,134,Second,24,21,F,0.34219444444444436,1440,6,-0.201792929
67,16,B_exp3,0.416666667,0.469318182,89.4,62,641047cd7900abdc5ccdbf10,135,Second,24,21,F,0.34219444444444436,1440,6,0.05265151499999998
67,25,B_exp3,0.673333333,0.630909091,78.2,98,641047cd7900abdc5ccdbf10,136,Second,24,21,F,0.34219444444444436,1440,6,-0.042424241999999945
67,30,A_exp3,0.711111111,0.720681818,69.76,117,641047cd7900abdc5ccdbf10,137,Second,24,21,F,0.34219444444444436,1440,6,0.009570706999999956
67,5,D_exp3,0.388888889,0.271818182,96.99,20,641047cd7900abdc5ccdbf10,138,Second,24,21,F,0.34219444444444436,1440,6,-0.117070707
67,40,D_exp3,0.826666667,0.900227273,43.56,160,641047cd7900abdc5ccdbf10,139,Second,24,21,F,0.34219444444444436,1440,6,0.07356060600000003
67,21,C_exp3,0.503333333,0.559090909,83.77,83,641047cd7900abdc5ccdbf10,140,Second,24,21,F,0.34219444444444436,1440,6,0.055757575999999975
67,39,A_exp3,0.778888889,0.882272727,47.19,153,641047cd7900abdc5ccdbf10,141,Second,24,21,F,0.34219444444444436,1440,6,0.10338383800000006
67,1,A_exp3,0.393333333,0.2,98.47,1,641047cd7900abdc5ccdbf10,142,Second,24,21,F,0.34219444444444436,1440,6,-0.193333333
67,28,C_exp3,0.628888889,0.684772727,73.36,111,641047cd7900abdc5ccdbf10,143,Second,24,21,F,0.34219444444444436,1440,6,0.055883838000000075
67,6,A_exp3,0.364444444,0.289772727,96.58,21,641047cd7900abdc5ccdbf10,144,Second,24,21,F,0.34219444444444436,1440,6,-0.07467171699999997
67,45,A_exp3,0.948888889,0.99,14.13,177,641047cd7900abdc5ccdbf10,145,Second,24,21,F,0.34219444444444436,1440,6,0.04111111099999998
67,37,A_exp3,0.772222222,0.846363636,53.4,145,641047cd7900abdc5ccdbf10,146,Second,24,21,F,0.34219444444444436,1440,6,0.07414141399999996
67,5,B_exp3,0.507777778,0.271818182,96.99,18,641047cd7900abdc5ccdbf10,147,Second,24,21,F,0.34219444444444436,1440,6,-0.235959596
67,35,B_exp3,0.644444444,0.810454545,58.87,138,641047cd7900abdc5ccdbf10,148,Second,24,21,F,0.34219444444444436,1440,6,0.16601010100000002
67,4,C_exp3,0.376666667,0.253863636,97.45,15,641047cd7900abdc5ccdbf10,149,Second,24,21,F,0.34219444444444436,1440,6,-0.12280303100000001
67,17,C_exp3,0.501111111,0.487272727,88.33,67,641047cd7900abdc5ccdbf10,150,Second,24,21,F,0.34219444444444436,1440,6,-0.013838384000000037
67,12,A_exp3,0.508888889,0.3975,92.82,45,641047cd7900abdc5ccdbf10,151,Second,24,21,F,0.34219444444444436,1440,6,-0.11138888899999994
67,27,C_exp3,0.64,0.666818182,75.05,107,641047cd7900abdc5ccdbf10,152,Second,24,21,F,0.34219444444444436,1440,6,0.026818181999999968
67,39,D_exp3,0.768888889,0.882272727,47.19,156,641047cd7900abdc5ccdbf10,154,Second,24,21,F,0.34219444444444436,1440,6,0.11338383800000007
67,28,B_exp3,0.665555556,0.684772727,73.36,110,641047cd7900abdc5ccdbf10,155,Second,24,21,F,0.34219444444444436,1440,6,0.019217170999999977
67,23,A_exp3,0.636666667,0.595,81.13,89,641047cd7900abdc5ccdbf10,156,Second,24,21,F,0.34219444444444436,1440,6,-0.04166666699999999
67,1,D_exp3,0.444444444,0.2,98.47,4,641047cd7900abdc5ccdbf10,157,Second,24,21,F,0.34219444444444436,1440,6,-0.24444444399999998
67,32,A_exp3,0.798888889,0.756590909,65.73,125,641047cd7900abdc5ccdbf10,158,Second,24,21,F,0.34219444444444436,1440,6,-0.04229797999999996
67,40,A_exp3,0.876666667,0.900227273,43.56,157,641047cd7900abdc5ccdbf10,159,Second,24,21,F,0.34219444444444436,1440,6,0.023560606000000095
67,34,B_exp3,0.801111111,0.7925,61.29,134,641047cd7900abdc5ccdbf10,160,Second,24,21,F,0.34219444444444436,1440,6,-0.008611111000000005
67,37,B_exp3,0.865555556,0.846363636,53.4,146,641047cd7900abdc5ccdbf10,161,Second,24,21,F,0.34219444444444436,1440,6,-0.01919192000000003
67,31,D_exp3,0.732222222,0.738636364,67.86,124,641047cd7900abdc5ccdbf10,162,Second,24,21,F,0.34219444444444436,1440,6,0.0064141420000000116
67,24,B_exp3,0.596666667,0.612954545,79.66,94,641047cd7900abdc5ccdbf10,163,Second,24,21,F,0.34219444444444436,1440,6,0.016287877999999978
67,45,C_exp3,0.89,0.99,14.13,179,641047cd7900abdc5ccdbf10,164,Second,24,21,F,0.34219444444444436,1440,6,0.09999999999999998
67,26,B_exp3,0.68,0.648863636,76.62,102,641047cd7900abdc5ccdbf10,165,Second,24,21,F,0.34219444444444436,1440,6,-0.031136364000000083
67,13,B_exp3,0.458888889,0.415454545,91.98,50,641047cd7900abdc5ccdbf10,166,Second,24,21,F,0.34219444444444436,1440,6,-0.043434344000000014
67,3,B_exp3,0.388888889,0.235909091,97.87,10,641047cd7900abdc5ccdbf10,167,Second,24,21,F,0.34219444444444436,1440,6,-0.15297979800000003
67,14,A_exp3,0.386666667,0.433409091,91.2,53,641047cd7900abdc5ccdbf10,168,Second,24,21,F,0.34219444444444436,1440,6,0.046742424000000005
67,21,B_exp3,0.398888889,0.559090909,83.77,82,641047cd7900abdc5ccdbf10,169,Second,24,21,F,0.34219444444444436,1440,6,0.16020202
67,41,C_exp3,0.695555556,0.918181818,39.66,163,641047cd7900abdc5ccdbf10,170,Second,24,21,F,0.34219444444444436,1440,6,0.22262626200000002
67,22,B_exp3,0.602222222,0.577045455,82.45,86,641047cd7900abdc5ccdbf10,171,Second,24,21,F,0.34219444444444436,1440,6,-0.025176766999999933
67,41,A_exp3,0.865555556,0.918181818,39.66,161,641047cd7900abdc5ccdbf10,172,Second,24,21,F,0.34219444444444436,1440,6,0.05262626199999998
67,3,A_exp3,0.41,0.235909091,97.87,9,641047cd7900abdc5ccdbf10,173,Second,24,21,F,0.34219444444444436,1440,6,-0.174090909
67,12,C_exp3,0.338888889,0.3975,92.82,47,641047cd7900abdc5ccdbf10,174,Second,24,21,F,0.34219444444444436,1440,6,0.058611110999999994
67,36,D_exp3,0.665555556,0.828409091,56.22,144,641047cd7900abdc5ccdbf10,175,Second,24,21,F,0.34219444444444436,1440,6,0.162853535
67,28,A_exp3,0.717777778,0.684772727,73.36,109,641047cd7900abdc5ccdbf10,176,Second,24,21,F,0.34219444444444436,1440,6,-0.03300505099999995
67,3,D_exp3,0.348888889,0.235909091,97.87,12,641047cd7900abdc5ccdbf10,177,Second,24,21,F,0.34219444444444436,1440,6,-0.11297979799999999
67,30,C_exp3,0.504444444,0.720681818,69.76,119,641047cd7900abdc5ccdbf10,178,Second,24,21,F,0.34219444444444436,1440,6,0.21623737399999998
67,42,C_exp3,0.805555556,0.936136364,35.25,167,641047cd7900abdc5ccdbf10,179,Second,24,21,F,0.34219444444444436,1440,6,0.13058080800000005
67,26,C_exp3,0.382222222,0.648863636,76.62,103,641047cd7900abdc5ccdbf10,180,Second,24,21,F,0.34219444444444436,1440,6,0.26664141399999997
67,16,C_exp3,0.263333333,0.469318182,89.4,63,641047cd7900abdc5ccdbf10,181,Second,24,21,F,0.34219444444444436,1440,6,0.20598484899999997
67,40,C_exp3,0.784444444,0.900227273,43.56,159,641047cd7900abdc5ccdbf10,182,Second,24,21,F,0.34219444444444436,1440,6,0.11578282900000003
67,14,D_exp3,0.267777778,0.433409091,91.2,56,641047cd7900abdc5ccdbf10,183,Second,24,21,F,0.34219444444444436,1440,6,0.165631313
67,19,B_exp3,0.385555556,0.523181818,86.21,74,641047cd7900abdc5ccdbf10,184,Second,24,21,F,0.34219444444444436,1440,6,0.13762626199999994
67,27,D_exp3,0.386666667,0.666818182,75.05,108,641047cd7900abdc5ccdbf10,185,Second,24,21,F,0.34219444444444436,1440,6,0.28015151499999996
47,15,C_exp3,0.301851838,0.451363636,90.29,59,641047d4d5f9182133048804,0,First,24,23,F,0.3175,1536,6,0.14951179800000003
47,32,B_exp3,0.77870369,0.756590909,65.73,126,641047d4d5f9182133048804,1,First,24,23,F,0.3175,1536,6,-0.022112780999999915
47,24,D_exp3,0.297222208,0.612954545,79.66,96,641047d4d5f9182133048804,2,First,24,23,F,0.3175,1536,6,0.31573233700000003
47,23,D_exp3,0.260185171,0.595,81.13,92,641047d4d5f9182133048804,3,First,24,23,F,0.3175,1536,6,0.334814829
47,21,A_exp3,NA,0.559090909,83.77,81,641047d4d5f9182133048804,4,First,24,23,F,0.3175,1536,6,NA
47,23,B_exp3,0.262962977,0.595,81.13,90,641047d4d5f9182133048804,5,First,24,23,F,0.3175,1536,6,0.332037023
47,30,A_exp3,0.630555541,0.720681818,69.76,117,641047d4d5f9182133048804,6,First,24,23,F,0.3175,1536,6,0.09012627699999998
47,35,C_exp3,0.543518561,0.810454545,58.87,139,641047d4d5f9182133048804,7,First,24,23,F,0.3175,1536,6,0.26693598400000007
47,11,A_exp3,0.149074095,0.379545455,93.55,41,641047d4d5f9182133048804,8,First,24,23,F,0.3175,1536,6,0.23047136
47,5,A_exp3,0.104629623,0.271818182,96.99,17,641047d4d5f9182133048804,9,First,24,23,F,0.3175,1536,6,0.16718855900000001
47,36,C_exp3,0.357407393,0.828409091,56.22,143,641047d4d5f9182133048804,10,First,24,23,F,0.3175,1536,6,0.471001698
47,32,D_exp3,0.182407414,0.756590909,65.73,128,641047d4d5f9182133048804,11,First,24,23,F,0.3175,1536,6,0.574183495
47,2,A_exp3,0.310185185,0.217954545,98.2,5,641047d4d5f9182133048804,12,First,24,23,F,0.3175,1536,6,-0.09223063999999997
47,33,A_exp3,0.529629672,0.774545455,63.57,129,641047d4d5f9182133048804,13,First,24,23,F,0.3175,1536,6,0.24491578300000005
47,33,C_exp3,0.45648151,0.774545455,63.57,131,641047d4d5f9182133048804,14,First,24,23,F,0.3175,1536,6,0.31806394500000007
47,39,C_exp3,0.575925968,0.882272727,47.19,155,641047d4d5f9182133048804,15,First,24,23,F,0.3175,1536,6,0.3063467590000001
47,22,B_exp3,0.127777771,0.577045455,82.45,86,641047d4d5f9182133048804,16,First,24,23,F,0.3175,1536,6,0.44926768400000006
47,44,A_exp3,0.977777834,0.972045455,23.65,173,641047d4d5f9182133048804,17,First,24,23,F,0.3175,1536,6,-0.00573237900000001
47,42,A_exp3,0.954629686,0.936136364,35.25,165,641047d4d5f9182133048804,18,First,24,23,F,0.3175,1536,6,-0.01849332199999998
47,40,B_exp3,0.877777806,0.900227273,43.56,158,641047d4d5f9182133048804,19,First,24,23,F,0.3175,1536,6,0.022449467000000056
47,18,D_exp3,0.058333326,0.505227273,87.36,72,641047d4d5f9182133048804,20,First,24,23,F,0.3175,1536,6,0.446893947
47,45,C_exp3,0.979629658,0.99,14.13,179,641047d4d5f9182133048804,21,First,24,23,F,0.3175,1536,6,0.010370341999999977
47,40,D_exp3,0.45185188,0.900227273,43.56,160,641047d4d5f9182133048804,23,First,24,23,F,0.3175,1536,6,0.44837539300000007
47,8,B_exp3,0.112037058,0.325681818,95.52,30,641047d4d5f9182133048804,24,First,24,23,F,0.3175,1536,6,0.21364476000000002
47,36,B_exp3,0.27407406,0.828409091,56.22,142,641047d4d5f9182133048804,25,First,24,23,F,0.3175,1536,6,0.554335031
47,30,B_exp3,0.12037037,0.720681818,69.76,118,641047d4d5f9182133048804,26,First,24,23,F,0.3175,1536,6,0.600311448
47,12,D_exp3,0.065740762,0.3975,92.82,48,641047d4d5f9182133048804,27,First,24,23,F,0.3175,1536,6,0.331759238
47,19,C_exp3,0.223148134,0.523181818,86.21,75,641047d4d5f9182133048804,28,First,24,23,F,0.3175,1536,6,0.30003368399999997
47,13,B_exp3,0.186111132,0.415454545,91.98,50,641047d4d5f9182133048804,29,First,24,23,F,0.3175,1536,6,0.229343413
47,27,A_exp3,0.153703725,0.666818182,75.05,105,641047d4d5f9182133048804,31,First,24,23,F,0.3175,1536,6,0.5131144569999999
47,9,A_exp3,0.069444444,0.343636364,94.9,33,641047d4d5f9182133048804,32,First,24,23,F,0.3175,1536,6,0.27419192000000003
47,26,A_exp3,0.110185199,0.648863636,76.62,101,641047d4d5f9182133048804,33,First,24,23,F,0.3175,1536,6,0.538678437
47,31,D_exp3,0.163888896,0.738636364,67.86,124,641047d4d5f9182133048804,34,First,24,23,F,0.3175,1536,6,0.574747468
47,21,B_exp3,0.131481489,0.559090909,83.77,82,641047d4d5f9182133048804,35,First,24,23,F,0.3175,1536,6,0.42760942
47,4,C_exp3,0.025000007,0.253863636,97.45,15,641047d4d5f9182133048804,36,First,24,23,F,0.3175,1536,6,0.228863629
47,24,C_exp3,0.018518519,0.612954545,79.66,95,641047d4d5f9182133048804,37,First,24,23,F,0.3175,1536,6,0.594436026
47,22,C_exp3,0.1175926,0.577045455,82.45,87,641047d4d5f9182133048804,38,First,24,23,F,0.3175,1536,6,0.45945285500000005
47,5,D_exp3,0.002777771,0.271818182,96.99,20,641047d4d5f9182133048804,39,First,24,23,F,0.3175,1536,6,0.26904041100000003
47,17,A_exp3,0.053703697,0.487272727,88.33,65,641047d4d5f9182133048804,40,First,24,23,F,0.3175,1536,6,0.43356903
47,27,D_exp3,0.197222215,0.666818182,75.05,108,641047d4d5f9182133048804,41,First,24,23,F,0.3175,1536,6,0.46959596699999995
47,39,D_exp3,0.707407422,0.882272727,47.19,156,641047d4d5f9182133048804,42,First,24,23,F,0.3175,1536,6,0.17486530500000008
47,26,D_exp3,0.412037037,0.648863636,76.62,104,641047d4d5f9182133048804,43,First,24,23,F,0.3175,1536,6,0.23682659899999997
47,7,B_exp3,0.170370384,0.307727273,96.03,26,641047d4d5f9182133048804,44,First,24,23,F,0.3175,1536,6,0.137356889
47,14,D_exp3,0.170370384,0.433409091,91.2,56,641047d4d5f9182133048804,45,First,24,23,F,0.3175,1536,6,0.263038707
47,12,B_exp3,0.160185178,0.3975,92.82,46,641047d4d5f9182133048804,46,First,24,23,F,0.3175,1536,6,0.237314822
47,41,C_exp3,0.853703675,0.918181818,39.66,163,641047d4d5f9182133048804,47,First,24,23,F,0.3175,1536,6,0.06447814299999999
47,14,A_exp3,0.190740762,0.433409091,91.2,53,641047d4d5f9182133048804,48,First,24,23,F,0.3175,1536,6,0.24266832900000002
47,23,A_exp3,0.191666674,0.595,81.13,89,641047d4d5f9182133048804,49,First,24,23,F,0.3175,1536,6,0.40333332599999994
47,11,C_exp3,0.128703718,0.379545455,93.55,43,641047d4d5f9182133048804,50,First,24,23,F,0.3175,1536,6,0.250841737
47,1,A_exp3,0.079629651,0.2,98.47,1,641047d4d5f9182133048804,51,First,24,23,F,0.3175,1536,6,0.12037034900000002
