participant,item,condition,slider.response,my_rs,total_residuals,unique_item_no,trials.thisN,session,half,literacy,age_textbox.text,gender_slider.response,difference
20,3,A_exp1,0.137962977,0.235909091,97.87,9,1,62c44b08b654221fba7dd79b,First,19,29,F,0.097946114
20,10,A_exp1,0.30277782,0.361590909,94.23,37,2,62c44b08b654221fba7dd79b,First,19,29,F,0.05881308900000004
20,13,A_exp1,0.387037065,0.415454545,91.98,49,3,62c44b08b654221fba7dd79b,First,19,29,F,0.028417479999999995
20,23,A_exp1,0.640740783,0.595,81.13,89,4,62c44b08b654221fba7dd79b,First,19,29,F,-0.04574078300000006
20,24,A_exp1,0.707407422,0.612954545,79.66,93,5,62c44b08b654221fba7dd79b,First,19,29,F,-0.09445287699999994
20,23,D_exp1,0.675925926,0.595,81.13,92,6,62c44b08b654221fba7dd79b,First,19,29,F,-0.08092592600000004
20,3,D_exp1,0.407407407,0.235909091,97.87,12,7,62c44b08b654221fba7dd79b,First,19,29,F,-0.171498316
20,38,A_exp1,0.935185185,0.864318182,50.47,149,8,62c44b08b654221fba7dd79b,First,19,29,F,-0.07086700300000004
20,39,A_exp1,0.886111083,0.882272727,47.19,153,9,62c44b08b654221fba7dd79b,First,19,29,F,-0.0038383559999999317
20,10,D_exp1,0.265740783,0.361590909,94.23,40,10,62c44b08b654221fba7dd79b,First,19,29,F,0.09585012600000004
20,21,D_exp1,0.384259259,0.559090909,83.77,84,11,62c44b08b654221fba7dd79b,First,19,29,F,0.17483165
20,1,D_exp1,0.128703718,0.2,98.47,4,12,62c44b08b654221fba7dd79b,First,19,29,F,0.07129628200000002
20,23,C_exp1,0.389814801,0.595,81.13,91,13,62c44b08b654221fba7dd79b,First,19,29,F,0.20518519899999998
20,42,B_exp1,0.957407492,0.936136364,35.25,166,14,62c44b08b654221fba7dd79b,First,19,29,F,-0.021271127999999973
20,36,B_exp1,0.801851908,0.828409091,56.22,142,15,62c44b08b654221fba7dd79b,First,19,29,F,0.026557183000000095
20,23,B_exp1,0.375,0.595,81.13,90,16,62c44b08b654221fba7dd79b,First,19,29,F,0.21999999999999997
20,24,C_exp1,0.413888931,0.612954545,79.66,95,17,62c44b08b654221fba7dd79b,First,19,29,F,0.199065614
20,19,A_exp1,0.382407436,0.523181818,86.21,73,18,62c44b08b654221fba7dd79b,First,19,29,F,0.14077438199999998
20,15,A_exp1,0.247222265,0.451363636,90.29,57,19,62c44b08b654221fba7dd79b,First,19,29,F,0.20414137100000002
20,38,C_exp1,0.872222194,0.864318182,50.47,151,20,62c44b08b654221fba7dd79b,First,19,29,F,-0.007904012000000016
20,43,D_exp1,0.984259288,0.954090909,30.04,172,21,62c44b08b654221fba7dd79b,First,19,29,F,-0.030168378999999912
20,12,B_exp1,0.154629637,0.3975,92.82,46,22,62c44b08b654221fba7dd79b,First,19,29,F,0.24287036300000003
20,34,C_exp1,0.764814801,0.7925,61.29,135,23,62c44b08b654221fba7dd79b,First,19,29,F,0.027685198999999994
20,33,B_exp1,0.725000028,0.774545455,63.57,130,24,62c44b08b654221fba7dd79b,First,19,29,F,0.049545427000000086
20,38,B_exp1,0.736111111,0.864318182,50.47,150,25,62c44b08b654221fba7dd79b,First,19,29,F,0.12820707099999995
20,16,A_exp1,0.363888917,0.469318182,89.4,61,26,62c44b08b654221fba7dd79b,First,19,29,F,0.105429265
20,13,D_exp1,0.260185171,0.415454545,91.98,52,27,62c44b08b654221fba7dd79b,First,19,29,F,0.15526937400000002
20,2,B_exp1,0.099074081,0.217954545,98.2,6,28,62c44b08b654221fba7dd79b,First,19,29,F,0.118880464
20,32,C_exp1,0.742592635,0.756590909,65.73,127,29,62c44b08b654221fba7dd79b,First,19,29,F,0.013998274000000088
20,40,C_exp1,0.948148233,0.900227273,43.56,159,30,62c44b08b654221fba7dd79b,First,19,29,F,-0.0479209599999999
20,41,D_exp1,0.933333362,0.918181818,39.66,164,31,62c44b08b654221fba7dd79b,First,19,29,F,-0.015151544000000072
20,20,B_exp1,0.104629623,0.541136364,85.04,78,32,62c44b08b654221fba7dd79b,First,19,29,F,0.436506741
20,44,C_exp1,0.975000028,0.972045455,23.65,175,33,62c44b08b654221fba7dd79b,First,19,29,F,-0.002954573000000016
20,16,B_exp1,0.063888903,0.469318182,89.4,62,34,62c44b08b654221fba7dd79b,First,19,29,F,0.405429279
20,2,D_exp1,0.068518533,0.217954545,98.2,8,35,62c44b08b654221fba7dd79b,First,19,29,F,0.149436012
20,1,A_exp1,0.203703704,0.2,98.47,1,36,62c44b08b654221fba7dd79b,First,19,29,F,-0.003703704000000002
20,27,A_exp1,0.179629644,0.666818182,75.05,105,37,62c44b08b654221fba7dd79b,First,19,29,F,0.48718853799999995
20,26,D_exp1,0.272222236,0.648863636,76.62,104,38,62c44b08b654221fba7dd79b,First,19,29,F,0.37664139999999996
20,43,B_exp1,0.940740797,0.954090909,30.04,170,39,62c44b08b654221fba7dd79b,First,19,29,F,0.013350112000000025
20,40,B_exp1,0.825000057,0.900227273,43.56,158,40,62c44b08b654221fba7dd79b,First,19,29,F,0.07522721600000004
20,31,C_exp1,0.64444443,0.738636364,67.86,123,41,62c44b08b654221fba7dd79b,First,19,29,F,0.09419193400000003
20,11,C_exp1,0.133333347,0.379545455,93.55,43,42,62c44b08b654221fba7dd79b,First,19,29,F,0.24621210799999999
20,36,A_exp1,0.650925954,0.828409091,56.22,141,43,62c44b08b654221fba7dd79b,First,19,29,F,0.17748313700000007
20,28,D_exp1,0.621296282,0.684772727,73.36,112,44,62c44b08b654221fba7dd79b,First,19,29,F,0.06347644500000005
20,18,D_exp1,0.422222208,0.505227273,87.36,72,45,62c44b08b654221fba7dd79b,First,19,29,F,0.08300506500000004
20,4,D_exp1,0.128703718,0.253863636,97.45,16,46,62c44b08b654221fba7dd79b,First,19,29,F,0.125159918
20,5,D_exp1,0.156481496,0.271818182,96.99,20,47,62c44b08b654221fba7dd79b,First,19,29,F,0.11533668600000002
20,4,B_exp1,0.094444452,0.253863636,97.45,14,48,62c44b08b654221fba7dd79b,First,19,29,F,0.159419184
20,25,B_exp1,0.586111139,0.630909091,78.2,98,49,62c44b08b654221fba7dd79b,First,19,29,F,0.04479795200000003
20,30,D_exp1,0.713888875,0.720681818,69.76,120,50,62c44b08b654221fba7dd79b,First,19,29,F,0.006792942999999996
20,33,C_exp1,0.813888974,0.774545455,63.57,131,51,62c44b08b654221fba7dd79b,First,19,29,F,-0.039343518999999993
20,17,A_exp1,0.097222222,0.487272727,88.33,65,52,62c44b08b654221fba7dd79b,First,19,29,F,0.39005050500000005
20,35,A_exp1,0.678703732,0.810454545,58.87,137,53,62c44b08b654221fba7dd79b,First,19,29,F,0.13175081300000002
20,11,D_exp1,0.207407422,0.379545455,93.55,44,54,62c44b08b654221fba7dd79b,First,19,29,F,0.17213803299999997
20,18,B_exp1,0.181481503,0.505227273,87.36,70,55,62c44b08b654221fba7dd79b,First,19,29,F,0.32374577000000004
20,37,A_exp1,0.740740741,0.846363636,53.4,145,56,62c44b08b654221fba7dd79b,First,19,29,F,0.105622895
20,8,B_exp1,0.12962963,0.325681818,95.52,30,57,62c44b08b654221fba7dd79b,First,19,29,F,0.19605218800000002
20,24,B_exp1,0.510185171,0.612954545,79.66,94,58,62c44b08b654221fba7dd79b,First,19,29,F,0.10276937399999997
20,4,C_exp1,0.048148155,0.253863636,97.45,15,59,62c44b08b654221fba7dd79b,First,19,29,F,0.205715481
20,30,A_exp1,0.514814801,0.720681818,69.76,117,60,62c44b08b654221fba7dd79b,First,19,29,F,0.20586701699999999
20,37,B_exp1,0.767592607,0.846363636,53.4,146,61,62c44b08b654221fba7dd79b,First,19,29,F,0.07877102899999999
20,45,A_exp1,0.990740741,0.99,14.13,177,62,62c44b08b654221fba7dd79b,First,19,29,F,-7.407409999999892e-4
20,35,B_exp1,0.788888931,0.810454545,58.87,138,63,62c44b08b654221fba7dd79b,First,19,29,F,0.02156561400000001
20,33,A_exp1,0.62962963,0.774545455,63.57,129,64,62c44b08b654221fba7dd79b,First,19,29,F,0.144915825
20,3,B_exp1,0.038888896,0.235909091,97.87,10,65,62c44b08b654221fba7dd79b,First,19,29,F,0.19702019499999998
20,28,C_exp1,0.267592607,0.684772727,73.36,111,66,62c44b08b654221fba7dd79b,First,19,29,F,0.41718012000000004
20,13,C_exp1,0.133333347,0.415454545,91.98,51,67,62c44b08b654221fba7dd79b,First,19,29,F,0.282121198
20,16,C_exp1,0.039814808,0.469318182,89.4,63,68,62c44b08b654221fba7dd79b,First,19,29,F,0.429503374
20,14,D_exp1,0.017592607,0.433409091,91.2,56,69,62c44b08b654221fba7dd79b,First,19,29,F,0.41581648400000004
20,21,C_exp1,0.025000007,0.559090909,83.77,83,70,62c44b08b654221fba7dd79b,First,19,29,F,0.534090902
20,10,B_exp1,0.01203703,0.361590909,94.23,38,71,62c44b08b654221fba7dd79b,First,19,29,F,0.349553879
20,17,D_exp1,0.037962984,0.487272727,88.33,68,72,62c44b08b654221fba7dd79b,First,19,29,F,0.44930974300000004
20,29,B_exp1,0.621296282,0.702727273,71.6,114,73,62c44b08b654221fba7dd79b,First,19,29,F,0.08143099100000006
20,19,C_exp1,0.231481481,0.523181818,86.21,75,74,62c44b08b654221fba7dd79b,First,19,29,F,0.291700337
20,34,D_exp1,0.62037037,0.7925,61.29,136,75,62c44b08b654221fba7dd79b,First,19,29,F,0.17212963000000003
20,8,D_exp1,0.055555556,0.325681818,95.52,32,76,62c44b08b654221fba7dd79b,First,19,29,F,0.270126262
20,10,C_exp1,0.082407422,0.361590909,94.23,39,77,62c44b08b654221fba7dd79b,First,19,29,F,0.279183487
20,9,A_exp1,0.038888896,0.343636364,94.9,33,78,62c44b08b654221fba7dd79b,First,19,29,F,0.304747468
20,21,B_exp1,0.061111132,0.559090909,83.77,82,79,62c44b08b654221fba7dd79b,First,19,29,F,0.497979777
20,11,A_exp1,0.026851866,0.379545455,93.55,41,80,62c44b08b654221fba7dd79b,First,19,29,F,0.352693589
20,44,B_exp1,0.962037122,0.972045455,23.65,174,81,62c44b08b654221fba7dd79b,First,19,29,F,0.010008332999999925
20,14,C_exp1,0.110185199,0.433409091,91.2,55,82,62c44b08b654221fba7dd79b,First,19,29,F,0.323223892
20,14,A_exp1,0.089814822,0.433409091,91.2,53,83,62c44b08b654221fba7dd79b,First,19,29,F,0.343594269
20,5,B_exp1,0.027777778,0.271818182,96.99,18,85,62c44b08b654221fba7dd79b,First,19,29,F,0.24404040400000002
20,42,A_exp1,0.912037037,0.936136364,35.25,165,86,62c44b08b654221fba7dd79b,First,19,29,F,0.024099326999999948
20,43,C_exp1,0.938888974,0.954090909,30.04,171,87,62c44b08b654221fba7dd79b,First,19,29,F,0.015201935
20,1,C_exp1,0.015740748,0.2,98.47,3,88,62c44b08b654221fba7dd79b,First,19,29,F,0.184259252
20,25,C_exp1,0.064814815,0.630909091,78.2,99,89,62c44b08b654221fba7dd79b,First,19,29,F,0.5660942760000001
20,41,B_exp1,0.83148151,0.918181818,39.66,162,90,62c44b08b654221fba7dd79b,First,19,29,F,0.08670030799999995
20,39,D_exp1,0.794444473,0.882272727,47.19,156,91,62c44b08b654221fba7dd79b,First,19,29,F,0.08782825400000005
20,12,A_exp1,0.025925919,0.3975,92.82,45,92,62c44b08b654221fba7dd79b,First,19,29,F,0.371574081
20,12,D_exp1,0.006481489,0.3975,92.82,48,93,62c44b08b654221fba7dd79b,Second,19,29,F,0.391018511
20,25,A_exp1,0.012962977,0.630909091,78.2,97,94,62c44b08b654221fba7dd79b,Second,19,29,F,0.617946114
20,21,A_exp1,0.018518519,0.559090909,83.77,81,95,62c44b08b654221fba7dd79b,Second,19,29,F,0.54057239
20,31,D_exp1,0.521296325,0.738636364,67.86,124,96,62c44b08b654221fba7dd79b,Second,19,29,F,0.21734003899999998
20,29,C_exp1,0.523148148,0.702727273,71.6,115,97,62c44b08b654221fba7dd79b,Second,19,29,F,0.17957912500000006
20,11,B_exp1,0.161111125,0.379545455,93.55,42,98,62c44b08b654221fba7dd79b,Second,19,29,F,0.21843432999999998
20,27,C_exp1,0.499074088,0.666818182,75.05,107,99,62c44b08b654221fba7dd79b,Second,19,29,F,0.16774409399999995
20,31,B_exp1,0.497222265,0.738636364,67.86,122,100,62c44b08b654221fba7dd79b,Second,19,29,F,0.241414099
20,30,C_exp1,0.497222265,0.720681818,69.76,119,101,62c44b08b654221fba7dd79b,Second,19,29,F,0.22345955299999998
20,1,B_exp1,0.051851873,0.2,98.47,2,102,62c44b08b654221fba7dd79b,Second,19,29,F,0.14814812700000002
20,43,A_exp1,0.92777775,0.954090909,30.04,169,103,62c44b08b654221fba7dd79b,Second,19,29,F,0.026313159000000086
20,7,B_exp1,0.030555548,0.307727273,96.03,26,104,62c44b08b654221fba7dd79b,Second,19,29,F,0.27717172500000004
20,18,C_exp1,0.024074095,0.505227273,87.36,71,105,62c44b08b654221fba7dd79b,Second,19,29,F,0.481153178
20,41,C_exp1,0.887963048,0.918181818,39.66,163,106,62c44b08b654221fba7dd79b,Second,19,29,F,0.03021876999999995
20,44,A_exp1,1,0.972045455,23.65,173,107,62c44b08b654221fba7dd79b,Second,19,29,F,-0.027954545000000053
20,25,D_exp1,0.287037037,0.630909091,78.2,100,108,62c44b08b654221fba7dd79b,Second,19,29,F,0.34387205400000004
20,4,A_exp1,0.027777778,0.253863636,97.45,13,109,62c44b08b654221fba7dd79b,Second,19,29,F,0.226085858
20,7,C_exp1,0.024074095,0.307727273,96.03,27,110,62c44b08b654221fba7dd79b,Second,19,29,F,0.283653178
20,6,D_exp1,0.32685188,0.289772727,96.58,24,111,62c44b08b654221fba7dd79b,Second,19,29,F,-0.037079152999999976
20,35,D_exp1,0.762962977,0.810454545,58.87,140,112,62c44b08b654221fba7dd79b,Second,19,29,F,0.047491567999999984
20,15,D_exp1,0.367592635,0.451363636,90.29,60,113,62c44b08b654221fba7dd79b,Second,19,29,F,0.08377100100000001
20,6,C_exp1,0.086111104,0.289772727,96.58,23,114,62c44b08b654221fba7dd79b,Second,19,29,F,0.20366162300000001
20,28,A_exp1,0.335185228,0.684772727,73.36,109,115,62c44b08b654221fba7dd79b,Second,19,29,F,0.349587499
20,20,C_exp1,0.292592578,0.541136364,85.04,79,116,62c44b08b654221fba7dd79b,Second,19,29,F,0.248543786
20,20,A_exp1,0.223148134,0.541136364,85.04,77,117,62c44b08b654221fba7dd79b,Second,19,29,F,0.31798823
20,41,A_exp1,0.933333362,0.918181818,39.66,161,118,62c44b08b654221fba7dd79b,Second,19,29,F,-0.015151544000000072
20,38,D_exp1,0.840740769,0.864318182,50.47,152,119,62c44b08b654221fba7dd79b,Second,19,29,F,0.023577412999999936
20,31,A_exp1,0.787037037,0.738636364,67.86,121,120,62c44b08b654221fba7dd79b,Second,19,29,F,-0.04840067300000006
20,9,D_exp1,0.338888875,0.343636364,94.9,36,121,62c44b08b654221fba7dd79b,Second,19,29,F,0.004747489000000049
20,20,D_exp1,0.140740748,0.541136364,85.04,80,122,62c44b08b654221fba7dd79b,Second,19,29,F,0.40039561599999995
20,17,C_exp1,0.429629644,0.487272727,88.33,67,123,62c44b08b654221fba7dd79b,Second,19,29,F,0.05764308300000004
20,22,D_exp1,0.409259302,0.577045455,82.45,88,124,62c44b08b654221fba7dd79b,Second,19,29,F,0.16778615300000005
20,33,D_exp1,0.809259344,0.774545455,63.57,132,125,62c44b08b654221fba7dd79b,Second,19,29,F,-0.03471388899999994
20,39,B_exp1,0.790740755,0.882272727,47.19,154,126,62c44b08b654221fba7dd79b,Second,19,29,F,0.09153197200000007
20,39,C_exp1,0.702777792,0.882272727,47.19,155,127,62c44b08b654221fba7dd79b,Second,19,29,F,0.17949493500000002
20,2,A_exp1,0.125925947,0.217954545,98.2,5,128,62c44b08b654221fba7dd79b,Second,19,29,F,0.09202859799999999
20,22,A_exp1,0.172222243,0.577045455,82.45,85,129,62c44b08b654221fba7dd79b,Second,19,29,F,0.40482321200000004
20,19,D_exp1,0.172222243,0.523181818,86.21,76,130,62c44b08b654221fba7dd79b,Second,19,29,F,0.35095957499999997
20,19,B_exp1,0.172222243,0.523181818,86.21,74,131,62c44b08b654221fba7dd79b,Second,19,29,F,0.35095957499999997
20,40,D_exp1,0.844444416,0.900227273,43.56,160,132,62c44b08b654221fba7dd79b,Second,19,29,F,0.055782857000000075
20,18,A_exp1,0.080555563,0.505227273,87.36,69,134,62c44b08b654221fba7dd79b,Second,19,29,F,0.42467171000000004
20,42,C_exp1,0.877777806,0.936136364,35.25,167,135,62c44b08b654221fba7dd79b,Second,19,29,F,0.058358558000000005
20,44,D_exp1,0.983333305,0.972045455,23.65,176,136,62c44b08b654221fba7dd79b,Second,19,29,F,-0.0112878500000001
20,3,C_exp1,0.01666666,0.235909091,97.87,11,137,62c44b08b654221fba7dd79b,Second,19,29,F,0.219242431
20,28,B_exp1,0.599074116,0.684772727,73.36,110,138,62c44b08b654221fba7dd79b,Second,19,29,F,0.08569861099999998
20,15,B_exp1,0.10092594,0.451363636,90.29,58,139,62c44b08b654221fba7dd79b,Second,19,29,F,0.350437696
20,5,C_exp1,0.027777778,0.271818182,96.99,19,140,62c44b08b654221fba7dd79b,Second,19,29,F,0.24404040400000002
20,36,C_exp1,0.755555541,0.828409091,56.22,143,141,62c44b08b654221fba7dd79b,Second,19,29,F,0.07285355000000004
20,8,C_exp1,0.032407407,0.325681818,95.52,31,142,62c44b08b654221fba7dd79b,Second,19,29,F,0.293274411
20,26,C_exp1,0.570370356,0.648863636,76.62,103,144,62c44b08b654221fba7dd79b,Second,19,29,F,0.07849328
20,32,D_exp1,0.607407393,0.756590909,65.73,128,145,62c44b08b654221fba7dd79b,Second,19,29,F,0.14918351600000002
20,12,C_exp1,0.361111111,0.3975,92.82,47,146,62c44b08b654221fba7dd79b,Second,19,29,F,0.036388889000000035
20,30,B_exp1,0.606481481,0.720681818,69.76,118,147,62c44b08b654221fba7dd79b,Second,19,29,F,0.11420033699999999
20,8,A_exp1,0.029629637,0.325681818,95.52,29,148,62c44b08b654221fba7dd79b,Second,19,29,F,0.296052181
20,32,A_exp1,0.654629672,0.756590909,65.73,125,149,62c44b08b654221fba7dd79b,Second,19,29,F,0.10196123700000004
20,27,D_exp1,0.589814857,0.666818182,75.05,108,150,62c44b08b654221fba7dd79b,Second,19,29,F,0.07700332499999996
20,34,A_exp1,0.560185185,0.7925,61.29,133,151,62c44b08b654221fba7dd79b,Second,19,29,F,0.23231481499999995
20,34,B_exp1,0.563888903,0.7925,61.29,134,152,62c44b08b654221fba7dd79b,Second,19,29,F,0.22861109699999993
20,24,D_exp1,0.429629644,0.612954545,79.66,96,153,62c44b08b654221fba7dd79b,Second,19,29,F,0.18332490100000004
20,40,A_exp1,0.747222265,0.900227273,43.56,157,154,62c44b08b654221fba7dd79b,Second,19,29,F,0.15300500800000005
20,37,D_exp1,0.687037079,0.846363636,53.4,148,155,62c44b08b654221fba7dd79b,Second,19,29,F,0.15932655699999998
20,2,C_exp1,0,0.217954545,98.2,7,156,62c44b08b654221fba7dd79b,Second,19,29,F,0.217954545
20,22,C_exp1,0.212962963,0.577045455,82.45,87,157,62c44b08b654221fba7dd79b,Second,19,29,F,0.36408249200000004
20,45,B_exp1,0.9898149,0.99,14.13,178,158,62c44b08b654221fba7dd79b,Second,19,29,F,1.850999999999381e-4
20,5,A_exp1,0.005555577,0.271818182,96.99,17,159,62c44b08b654221fba7dd79b,Second,19,29,F,0.26626260500000004
20,13,B_exp1,0.011111118,0.415454545,91.98,50,160,62c44b08b654221fba7dd79b,Second,19,29,F,0.40434342700000003
20,22,B_exp1,0.114814829,0.577045455,82.45,86,161,62c44b08b654221fba7dd79b,Second,19,29,F,0.46223062600000003
20,29,D_exp1,0.62037037,0.702727273,71.6,116,162,62c44b08b654221fba7dd79b,Second,19,29,F,0.08235690300000009
20,42,D_exp1,0.796296296,0.936136364,35.25,168,163,62c44b08b654221fba7dd79b,Second,19,29,F,0.13984006800000004
20,6,A_exp1,0.024074095,0.289772727,96.58,21,164,62c44b08b654221fba7dd79b,Second,19,29,F,0.265698632
20,7,D_exp1,0.014814836,0.307727273,96.03,28,165,62c44b08b654221fba7dd79b,Second,19,29,F,0.292912437
20,26,A_exp1,0.49537037,0.648863636,76.62,101,166,62c44b08b654221fba7dd79b,Second,19,29,F,0.15349326599999996
20,6,B_exp1,0.054629644,0.289772727,96.58,22,167,62c44b08b654221fba7dd79b,Second,19,29,F,0.235143083
20,36,D_exp1,0.777777778,0.828409091,56.22,144,168,62c44b08b654221fba7dd79b,Second,19,29,F,0.05063131300000001
20,16,D_exp1,0.146296289,0.469318182,89.4,64,169,62c44b08b654221fba7dd79b,Second,19,29,F,0.32302189299999995
20,37,C_exp1,0.75,0.846363636,53.4,147,170,62c44b08b654221fba7dd79b,Second,19,29,F,0.09636363599999997
20,14,B_exp1,0.038888896,0.433409091,91.2,54,171,62c44b08b654221fba7dd79b,Second,19,29,F,0.394520195
20,15,C_exp1,0.119444459,0.451363636,90.29,59,172,62c44b08b654221fba7dd79b,Second,19,29,F,0.331919177
20,32,B_exp1,0.603703746,0.756590909,65.73,126,173,62c44b08b654221fba7dd79b,Second,19,29,F,0.15288716300000005
20,7,A_exp1,0.043518526,0.307727273,96.03,25,174,62c44b08b654221fba7dd79b,Second,19,29,F,0.264208747
20,45,C_exp1,0.976851852,0.99,14.13,179,175,62c44b08b654221fba7dd79b,Second,19,29,F,0.01314814799999997
20,35,C_exp1,0.665740755,0.810454545,58.87,139,176,62c44b08b654221fba7dd79b,Second,19,29,F,0.14471379000000006
20,29,A_exp1,0.594444487,0.702727273,71.6,113,177,62c44b08b654221fba7dd79b,Second,19,29,F,0.10828278600000008
20,17,B_exp1,0.542592578,0.487272727,88.33,66,178,62c44b08b654221fba7dd79b,Second,19,29,F,-0.05531985100000003
20,26,B_exp1,0.575925968,0.648863636,76.62,102,180,62c44b08b654221fba7dd79b,Second,19,29,F,0.07293766800000001
20,9,C_exp1,0.280555584,0.343636364,94.9,35,181,62c44b08b654221fba7dd79b,Second,19,29,F,0.06308078
20,45,D_exp1,0.946296268,0.99,14.13,180,182,62c44b08b654221fba7dd79b,Second,19,29,F,0.043703731999999995
20,9,B_exp1,0.275925954,0.343636364,94.9,34,184,62c44b08b654221fba7dd79b,Second,19,29,F,0.06771041000000005
20,27,B_exp1,0.64907406,0.666818182,75.05,106,185,62c44b08b654221fba7dd79b,Second,19,29,F,0.017744121999999973
73,11,C_exp1,NA,0.379545455,93.55,43,0,62c44a8fe4ea84ea1955a967,First,22,21,F,NA
73,7,C_exp1,0.185185185,0.307727273,96.03,27,1,62c44a8fe4ea84ea1955a967,First,22,21,F,0.12254208800000002
73,6,A_exp1,0.26944443,0.289772727,96.58,21,2,62c44a8fe4ea84ea1955a967,First,22,21,F,0.020328296999999995
73,40,D_exp1,0.812037009,0.900227273,43.56,160,3,62c44a8fe4ea84ea1955a967,First,22,21,F,0.08819026400000007
73,23,B_exp1,0.390740783,0.595,81.13,90,4,62c44a8fe4ea84ea1955a967,First,22,21,F,0.204259217
73,23,D_exp1,0.390740783,0.595,81.13,92,5,62c44a8fe4ea84ea1955a967,First,22,21,F,0.204259217
73,10,D_exp1,0.335185228,0.361590909,94.23,40,6,62c44a8fe4ea84ea1955a967,First,22,21,F,0.026405681000000014
73,42,D_exp1,0.906481566,0.936136364,35.25,168,7,62c44a8fe4ea84ea1955a967,First,22,21,F,0.029654798000000038
73,1,A_exp1,0.292592578,0.2,98.47,1,8,62c44a8fe4ea84ea1955a967,First,22,21,F,-0.09259257799999998
73,36,A_exp1,0.635185171,0.828409091,56.22,141,9,62c44a8fe4ea84ea1955a967,First,22,21,F,0.19322392
73,17,B_exp1,0.365740741,0.487272727,88.33,66,10,62c44a8fe4ea84ea1955a967,First,22,21,F,0.12153198600000004
73,15,A_exp1,0.271296325,0.451363636,90.29,57,11,62c44a8fe4ea84ea1955a967,First,22,21,F,0.180067311
73,30,A_exp1,0.437037079,0.720681818,69.76,117,12,62c44a8fe4ea84ea1955a967,First,22,21,F,0.283644739
73,30,C_exp1,0.421296296,0.720681818,69.76,119,13,62c44a8fe4ea84ea1955a967,First,22,21,F,0.29938552199999996
73,45,D_exp1,1,0.99,14.13,180,14,62c44a8fe4ea84ea1955a967,First,22,21,F,-0.010000000000000009
73,32,A_exp1,0.392592607,0.756590909,65.73,125,15,62c44a8fe4ea84ea1955a967,First,22,21,F,0.36399830200000005
73,17,C_exp1,0.211111139,0.487272727,88.33,67,16,62c44a8fe4ea84ea1955a967,First,22,21,F,0.276161588
73,14,B_exp1,0.298148191,0.433409091,91.2,54,17,62c44a8fe4ea84ea1955a967,First,22,21,F,0.13526090000000002
73,7,B_exp1,0.329629616,0.307727273,96.03,26,18,62c44a8fe4ea84ea1955a967,First,22,21,F,-0.02190234299999999
73,32,D_exp1,0.55740745,0.756590909,65.73,128,19,62c44a8fe4ea84ea1955a967,First,22,21,F,0.199183459
73,22,D_exp1,0.412962949,0.577045455,82.45,88,20,62c44a8fe4ea84ea1955a967,First,22,21,F,0.16408250600000002
73,45,C_exp1,0.940740797,0.99,14.13,179,21,62c44a8fe4ea84ea1955a967,First,22,21,F,0.049259202999999974
73,12,B_exp1,0.444444444,0.3975,92.82,46,22,62c44a8fe4ea84ea1955a967,First,22,21,F,-0.046944443999999974
73,1,B_exp1,0.318518533,0.2,98.47,2,23,62c44a8fe4ea84ea1955a967,First,22,21,F,-0.11851853299999998
73,3,B_exp1,0.318518533,0.235909091,97.87,10,24,62c44a8fe4ea84ea1955a967,First,22,21,F,-0.082609442
73,19,D_exp1,0.384259259,0.523181818,86.21,76,25,62c44a8fe4ea84ea1955a967,First,22,21,F,0.13892255899999995
73,22,C_exp1,0.426851838,0.577045455,82.45,87,26,62c44a8fe4ea84ea1955a967,First,22,21,F,0.15019361700000006
73,23,A_exp1,0.37037037,0.595,81.13,89,27,62c44a8fe4ea84ea1955a967,First,22,21,F,0.22462962999999997
73,28,C_exp1,0.511111153,0.684772727,73.36,111,28,62c44a8fe4ea84ea1955a967,First,22,21,F,0.17366157400000004
73,41,C_exp1,0.77407406,0.918181818,39.66,163,30,62c44a8fe4ea84ea1955a967,First,22,21,F,0.14410775799999997
73,24,B_exp1,0.48055557,0.612954545,79.66,94,31,62c44a8fe4ea84ea1955a967,First,22,21,F,0.13239897500000003
73,1,D_exp1,0.309259273,0.2,98.47,4,32,62c44a8fe4ea84ea1955a967,First,22,21,F,-0.10925927299999999
73,16,A_exp1,0.314814815,0.469318182,89.4,61,34,62c44a8fe4ea84ea1955a967,First,22,21,F,0.15450336699999995
73,25,A_exp1,0.218518504,0.630909091,78.2,97,35,62c44a8fe4ea84ea1955a967,First,22,21,F,0.41239058700000003
73,36,B_exp1,0.540740755,0.828409091,56.22,142,36,62c44a8fe4ea84ea1955a967,First,22,21,F,0.2876683360000001
73,20,A_exp1,0.364814829,0.541136364,85.04,77,37,62c44a8fe4ea84ea1955a967,First,22,21,F,0.17632153499999997
73,18,C_exp1,0.318518533,0.505227273,87.36,71,38,62c44a8fe4ea84ea1955a967,First,22,21,F,0.18670874000000004
73,36,D_exp1,0.744444459,0.828409091,56.22,144,39,62c44a8fe4ea84ea1955a967,First,22,21,F,0.08396463200000004
73,11,D_exp1,0.413888931,0.379545455,93.55,44,40,62c44a8fe4ea84ea1955a967,First,22,21,F,-0.03434347600000004
73,5,C_exp1,0.352777764,0.271818182,96.99,19,41,62c44a8fe4ea84ea1955a967,First,22,21,F,-0.08095958199999997
73,37,B_exp1,0.722222222,0.846363636,53.4,146,42,62c44a8fe4ea84ea1955a967,First,22,21,F,0.124141414
73,7,A_exp1,0.391666695,0.307727273,96.03,25,43,62c44a8fe4ea84ea1955a967,First,22,21,F,-0.08393942199999999
73,2,A_exp1,0.222222222,0.217954545,98.2,5,44,62c44a8fe4ea84ea1955a967,First,22,21,F,-0.0042676769999999975
73,6,B_exp1,0.25,0.289772727,96.58,22,45,62c44a8fe4ea84ea1955a967,First,22,21,F,0.03977272700000001
73,24,C_exp1,0.466666681,0.612954545,79.66,95,46,62c44a8fe4ea84ea1955a967,First,22,21,F,0.146287864
73,44,B_exp1,0.94722225,0.972045455,23.65,174,47,62c44a8fe4ea84ea1955a967,First,22,21,F,0.024823204999999904
73,22,A_exp1,0.367592635,0.577045455,82.45,85,48,62c44a8fe4ea84ea1955a967,First,22,21,F,0.20945282000000004
73,13,D_exp1,0.334259245,0.415454545,91.98,52,49,62c44a8fe4ea84ea1955a967,First,22,21,F,0.08119530000000003
73,9,C_exp1,0.301851838,0.343636364,94.9,35,50,62c44a8fe4ea84ea1955a967,First,22,21,F,0.041784526000000044
73,15,D_exp1,0.244444459,0.451363636,90.29,60,51,62c44a8fe4ea84ea1955a967,First,22,21,F,0.206919177
73,18,D_exp1,0.389814801,0.505227273,87.36,72,52,62c44a8fe4ea84ea1955a967,First,22,21,F,0.11541247200000004
73,25,D_exp1,0.483333376,0.630909091,78.2,100,53,62c44a8fe4ea84ea1955a967,First,22,21,F,0.14757571500000005
73,12,D_exp1,0.348148134,0.3975,92.82,48,54,62c44a8fe4ea84ea1955a967,First,22,21,F,0.04935186600000002
73,21,C_exp1,0.418518561,0.559090909,83.77,83,55,62c44a8fe4ea84ea1955a967,First,22,21,F,0.140572348
73,24,A_exp1,0.418518561,0.612954545,79.66,93,56,62c44a8fe4ea84ea1955a967,First,22,21,F,0.194435984
73,25,B_exp1,0.500925912,0.630909091,78.2,98,57,62c44a8fe4ea84ea1955a967,First,22,21,F,0.129983179
73,4,A_exp1,0.339814857,0.253863636,97.45,13,58,62c44a8fe4ea84ea1955a967,First,22,21,F,-0.08595122100000002
73,39,A_exp1,0.765740783,0.882272727,47.19,153,59,62c44a8fe4ea84ea1955a967,First,22,21,F,0.116531944
73,9,D_exp1,0.250925912,0.343636364,94.9,36,60,62c44a8fe4ea84ea1955a967,First,22,21,F,0.09271045200000005
73,27,C_exp1,0.498148176,0.666818182,75.05,107,61,62c44a8fe4ea84ea1955a967,First,22,21,F,0.16867000599999998
73,11,B_exp1,0.369444459,0.379545455,93.55,42,62,62c44a8fe4ea84ea1955a967,First,22,21,F,0.010100995999999973
73,21,A_exp1,0.340740769,0.559090909,83.77,81,63,62c44a8fe4ea84ea1955a967,First,22,21,F,0.21835014000000003
73,28,B_exp1,0.388888889,0.684772727,73.36,110,64,62c44a8fe4ea84ea1955a967,First,22,21,F,0.295883838
73,42,C_exp1,0.797222279,0.936136364,35.25,167,65,62c44a8fe4ea84ea1955a967,First,22,21,F,0.13891408500000002
73,10,A_exp1,0.291666667,0.361590909,94.23,37,67,62c44a8fe4ea84ea1955a967,First,22,21,F,0.06992424200000003
73,29,B_exp1,0.502777806,0.702727273,71.6,114,68,62c44a8fe4ea84ea1955a967,First,22,21,F,0.19994946700000005
73,30,D_exp1,0.619444459,0.720681818,69.76,120,69,62c44a8fe4ea84ea1955a967,First,22,21,F,0.10123735899999997
73,7,D_exp1,0.354629658,0.307727273,96.03,28,70,62c44a8fe4ea84ea1955a967,First,22,21,F,-0.04690238499999999
73,28,D_exp1,0.600000028,0.684772727,73.36,112,71,62c44a8fe4ea84ea1955a967,First,22,21,F,0.08477269900000006
73,32,B_exp1,0.612963005,0.756590909,65.73,126,72,62c44a8fe4ea84ea1955a967,First,22,21,F,0.14362790400000003
73,16,D_exp1,0.377777806,0.469318182,89.4,64,73,62c44a8fe4ea84ea1955a967,First,22,21,F,0.09154037599999998
73,38,D_exp1,0.821296268,0.864318182,50.47,152,74,62c44a8fe4ea84ea1955a967,First,22,21,F,0.043021913999999994
73,10,C_exp1,0.395370413,0.361590909,94.23,39,75,62c44a8fe4ea84ea1955a967,First,22,21,F,-0.03377950399999996
73,34,B_exp1,0.656481496,0.7925,61.29,134,76,62c44a8fe4ea84ea1955a967,First,22,21,F,0.13601850399999993
73,30,B_exp1,0.654629672,0.720681818,69.76,118,77,62c44a8fe4ea84ea1955a967,First,22,21,F,0.06605214599999998
73,43,C_exp1,0.912963019,0.954090909,30.04,171,78,62c44a8fe4ea84ea1955a967,First,22,21,F,0.041127890000000056
73,5,A_exp1,0.308333362,0.271818182,96.99,17,79,62c44a8fe4ea84ea1955a967,First,22,21,F,-0.03651517999999998
73,38,A_exp1,0.723148134,0.864318182,50.47,149,80,62c44a8fe4ea84ea1955a967,First,22,21,F,0.141170048
73,29,A_exp1,0.633333347,0.702727273,71.6,113,81,62c44a8fe4ea84ea1955a967,First,22,21,F,0.06939392600000005
73,39,C_exp1,0.883333418,0.882272727,47.19,155,82,62c44a8fe4ea84ea1955a967,First,22,21,F,-0.001060690999999947
73,6,D_exp1,0.283333319,0.289772727,96.58,24,83,62c44a8fe4ea84ea1955a967,First,22,21,F,0.006439408000000035
73,35,A_exp1,0.638888889,0.810454545,58.87,137,84,62c44a8fe4ea84ea1955a967,First,22,21,F,0.17156565600000007
73,34,C_exp1,0.73055557,0.7925,61.29,135,85,62c44a8fe4ea84ea1955a967,First,22,21,F,0.06194442999999994
73,15,C_exp1,0.400925954,0.451363636,90.29,59,86,62c44a8fe4ea84ea1955a967,First,22,21,F,0.05043768200000004
73,34,A_exp1,0.502777806,0.7925,61.29,133,87,62c44a8fe4ea84ea1955a967,First,22,21,F,0.289722194
73,13,B_exp1,0.287037037,0.415454545,91.98,50,88,62c44a8fe4ea84ea1955a967,First,22,21,F,0.128417508
73,8,D_exp1,0.22129631,0.325681818,95.52,32,89,62c44a8fe4ea84ea1955a967,First,22,21,F,0.10438550800000002
73,39,B_exp1,0.791666667,0.882272727,47.19,154,90,62c44a8fe4ea84ea1955a967,First,22,21,F,0.09060606000000004
73,12,A_exp1,0.342592593,0.3975,92.82,45,91,62c44a8fe4ea84ea1955a967,First,22,21,F,0.05490740700000002
73,5,B_exp1,0.342592593,0.271818182,96.99,18,92,62c44a8fe4ea84ea1955a967,First,22,21,F,-0.07077441099999998
73,35,B_exp1,0.651851866,0.810454545,58.87,138,93,62c44a8fe4ea84ea1955a967,Second,22,21,F,0.15860267900000002
73,26,A_exp1,0.526851866,0.648863636,76.62,101,94,62c44a8fe4ea84ea1955a967,Second,22,21,F,0.12201176999999996
73,5,D_exp1,0.503703718,0.271818182,96.99,20,95,62c44a8fe4ea84ea1955a967,Second,22,21,F,-0.231885536
73,40,A_exp1,0.800925926,0.900227273,43.56,157,96,62c44a8fe4ea84ea1955a967,Second,22,21,F,0.09930134700000004
73,31,D_exp1,0.658333319,0.738636364,67.86,124,97,62c44a8fe4ea84ea1955a967,Second,22,21,F,0.08030304499999996
73,8,C_exp1,0.419444473,0.325681818,95.52,31,98,62c44a8fe4ea84ea1955a967,Second,22,21,F,-0.09376265499999997
73,2,C_exp1,0.272222236,0.217954545,98.2,7,99,62c44a8fe4ea84ea1955a967,Second,22,21,F,-0.05426769100000001
73,27,D_exp1,0.600000028,0.666818182,75.05,108,100,62c44a8fe4ea84ea1955a967,Second,22,21,F,0.06681815400000002
73,33,D_exp1,0.753703718,0.774545455,63.57,132,101,62c44a8fe4ea84ea1955a967,Second,22,21,F,0.020841737000000027
73,31,B_exp1,0.753703718,0.738636364,67.86,122,102,62c44a8fe4ea84ea1955a967,Second,22,21,F,-0.015067354000000033
73,26,B_exp1,0.591666681,0.648863636,76.62,102,103,62c44a8fe4ea84ea1955a967,Second,22,21,F,0.057196954999999994
73,17,D_exp1,0.482407393,0.487272727,88.33,68,104,62c44a8fe4ea84ea1955a967,Second,22,21,F,0.004865333999999999
73,31,C_exp1,0.633333347,0.738636364,67.86,123,105,62c44a8fe4ea84ea1955a967,Second,22,21,F,0.105303017
73,38,B_exp1,0.839814787,0.864318182,50.47,150,106,62c44a8fe4ea84ea1955a967,Second,22,21,F,0.024503394999999983
73,29,C_exp1,0.762962977,0.702727273,71.6,115,107,62c44a8fe4ea84ea1955a967,Second,22,21,F,-0.060235704
73,42,B_exp1,0.984259288,0.936136364,35.25,166,108,62c44a8fe4ea84ea1955a967,Second,22,21,F,-0.048122923999999956
73,26,D_exp1,0.662037037,0.648863636,76.62,104,109,62c44a8fe4ea84ea1955a967,Second,22,21,F,-0.013173401000000085
73,14,A_exp1,0.449074074,0.433409091,91.2,53,110,62c44a8fe4ea84ea1955a967,Second,22,21,F,-0.015664982999999966
73,12,C_exp1,0.356481481,0.3975,92.82,47,111,62c44a8fe4ea84ea1955a967,Second,22,21,F,0.04101851900000003
73,16,B_exp1,0.368518547,0.469318182,89.4,62,112,62c44a8fe4ea84ea1955a967,Second,22,21,F,0.100799635
73,40,B_exp1,0.825925898,0.900227273,43.56,158,113,62c44a8fe4ea84ea1955a967,Second,22,21,F,0.074301375
73,21,D_exp1,0.650000042,0.559090909,83.77,84,114,62c44a8fe4ea84ea1955a967,Second,22,21,F,-0.09090913299999992
73,18,A_exp1,0.512962977,0.505227273,87.36,69,115,62c44a8fe4ea84ea1955a967,Second,22,21,F,-0.00773570400000001
73,27,B_exp1,0.673148191,0.666818182,75.05,106,116,62c44a8fe4ea84ea1955a967,Second,22,21,F,-0.006330009000000025
73,41,D_exp1,0.910185213,0.918181818,39.66,164,118,62c44a8fe4ea84ea1955a967,Second,22,21,F,0.00799660499999999
73,33,C_exp1,0.782407407,0.774545455,63.57,131,119,62c44a8fe4ea84ea1955a967,Second,22,21,F,-0.00786195199999995
73,19,B_exp1,0.645370413,0.523181818,86.21,74,120,62c44a8fe4ea84ea1955a967,Second,22,21,F,-0.12218859500000001
73,13,C_exp1,0.558333362,0.415454545,91.98,51,121,62c44a8fe4ea84ea1955a967,Second,22,21,F,-0.14287881700000005
73,11,A_exp1,0.501851894,0.379545455,93.55,41,122,62c44a8fe4ea84ea1955a967,Second,22,21,F,-0.12230643899999999
73,10,B_exp1,0.482407393,0.361590909,94.23,38,123,62c44a8fe4ea84ea1955a967,Second,22,21,F,-0.120816484
73,41,B_exp1,0.904629601,0.918181818,39.66,162,124,62c44a8fe4ea84ea1955a967,Second,22,21,F,0.013552216999999978
73,2,D_exp1,0.604629658,0.217954545,98.2,8,125,62c44a8fe4ea84ea1955a967,Second,22,21,F,-0.386675113
73,20,C_exp1,0.541666667,0.541136364,85.04,79,126,62c44a8fe4ea84ea1955a967,Second,22,21,F,-5.303030000000097e-4
73,18,B_exp1,0.474074116,0.505227273,87.36,70,127,62c44a8fe4ea84ea1955a967,Second,22,21,F,0.031153157000000042
73,44,A_exp1,0.975926011,0.972045455,23.65,173,128,62c44a8fe4ea84ea1955a967,Second,22,21,F,-0.003880556000000035
73,15,B_exp1,0.652777778,0.451363636,90.29,58,129,62c44a8fe4ea84ea1955a967,Second,22,21,F,-0.20141414200000002
73,2,B_exp1,0.470370399,0.217954545,98.2,6,130,62c44a8fe4ea84ea1955a967,Second,22,21,F,-0.252415854
73,31,A_exp1,0.665740755,0.738636364,67.86,121,131,62c44a8fe4ea84ea1955a967,Second,22,21,F,0.07289560900000003
73,3,A_exp1,0.434259273,0.235909091,97.87,9,132,62c44a8fe4ea84ea1955a967,Second,22,21,F,-0.198350182
73,43,B_exp1,0.899074131,0.954090909,30.04,170,133,62c44a8fe4ea84ea1955a967,Second,22,21,F,0.055016778000000044
73,4,D_exp1,0.431481467,0.253863636,97.45,16,134,62c44a8fe4ea84ea1955a967,Second,22,21,F,-0.177617831
73,35,D_exp1,0.626851894,0.810454545,58.87,140,135,62c44a8fe4ea84ea1955a967,Second,22,21,F,0.18360265100000006
73,20,B_exp1,0.478703746,0.541136364,85.04,78,136,62c44a8fe4ea84ea1955a967,Second,22,21,F,0.062432617999999995
73,29,D_exp1,0.595370399,0.702727273,71.6,116,137,62c44a8fe4ea84ea1955a967,Second,22,21,F,0.10735687400000005
73,14,D_exp1,0.465740769,0.433409091,91.2,56,138,62c44a8fe4ea84ea1955a967,Second,22,21,F,-0.032331677999999975
73,33,A_exp1,0.689814815,0.774545455,63.57,129,140,62c44a8fe4ea84ea1955a967,Second,22,21,F,0.08473064000000008
73,37,D_exp1,0.80277775,0.846363636,53.4,148,141,62c44a8fe4ea84ea1955a967,Second,22,21,F,0.04358588600000002
73,34,D_exp1,0.767592607,0.7925,61.29,136,142,62c44a8fe4ea84ea1955a967,Second,22,21,F,0.024907393
73,44,D_exp1,0.962037122,0.972045455,23.65,176,143,62c44a8fe4ea84ea1955a967,Second,22,21,F,0.010008332999999925
73,9,B_exp1,0.30277782,0.343636364,94.9,34,144,62c44a8fe4ea84ea1955a967,Second,22,21,F,0.04085854400000005
73,35,C_exp1,0.542592578,0.810454545,58.87,139,145,62c44a8fe4ea84ea1955a967,Second,22,21,F,0.267861967
73,4,C_exp1,0.256481524,0.253863636,97.45,15,146,62c44a8fe4ea84ea1955a967,Second,22,21,F,-0.0026178880000000126
73,1,C_exp1,0.277777778,0.2,98.47,3,147,62c44a8fe4ea84ea1955a967,Second,22,21,F,-0.07777777799999996
73,16,C_exp1,0.317592621,0.469318182,89.4,63,148,62c44a8fe4ea84ea1955a967,Second,22,21,F,0.15172556099999995
73,9,A_exp1,0.303703732,0.343636364,94.9,33,149,62c44a8fe4ea84ea1955a967,Second,22,21,F,0.03993263200000002
73,43,A_exp1,0.886111083,0.954090909,30.04,169,150,62c44a8fe4ea84ea1955a967,Second,22,21,F,0.06797982600000008
73,23,C_exp1,0.691666709,0.595,81.13,91,151,62c44a8fe4ea84ea1955a967,Second,22,21,F,-0.09666670900000007
73,25,C_exp1,0.614814829,0.630909091,78.2,99,152,62c44a8fe4ea84ea1955a967,Second,22,21,F,0.01609426200000008
73,20,D_exp1,0.496296282,0.541136364,85.04,80,153,62c44a8fe4ea84ea1955a967,Second,22,21,F,0.044840082
73,19,C_exp1,0.473148134,0.523181818,86.21,75,154,62c44a8fe4ea84ea1955a967,Second,22,21,F,0.05003368399999997
73,36,C_exp1,0.805555556,0.828409091,56.22,143,155,62c44a8fe4ea84ea1955a967,Second,22,21,F,0.02285353500000009
73,43,D_exp1,0.973148205,0.954090909,30.04,172,156,62c44a8fe4ea84ea1955a967,Second,22,21,F,-0.019057295999999946
73,32,C_exp1,0.672222208,0.756590909,65.73,127,157,62c44a8fe4ea84ea1955a967,Second,22,21,F,0.08436870100000005
73,45,A_exp1,0.98518527,0.99,14.13,177,158,62c44a8fe4ea84ea1955a967,Second,22,21,F,0.004814729999999989
73,19,A_exp1,0.440740727,0.523181818,86.21,73,159,62c44a8fe4ea84ea1955a967,Second,22,21,F,0.08244109099999997
73,39,D_exp1,0.690740727,0.882272727,47.19,156,160,62c44a8fe4ea84ea1955a967,Second,22,21,F,0.19153200000000004
73,33,B_exp1,0.648148148,0.774545455,63.57,130,161,62c44a8fe4ea84ea1955a967,Second,22,21,F,0.12639730700000007
73,42,A_exp1,0.793518561,0.936136364,35.25,165,162,62c44a8fe4ea84ea1955a967,Second,22,21,F,0.14261780300000004
73,6,C_exp1,0.381481524,0.289772727,96.58,23,163,62c44a8fe4ea84ea1955a967,Second,22,21,F,-0.09170879700000001
73,3,C_exp1,0.350000028,0.235909091,97.87,11,164,62c44a8fe4ea84ea1955a967,Second,22,21,F,-0.11409093700000003
73,8,B_exp1,0.365740741,0.325681818,95.52,30,165,62c44a8fe4ea84ea1955a967,Second,22,21,F,-0.04005892299999997
73,14,C_exp1,0.209259245,0.433409091,91.2,55,166,62c44a8fe4ea84ea1955a967,Second,22,21,F,0.224149846
73,40,C_exp1,0.702777792,0.900227273,43.56,159,167,62c44a8fe4ea84ea1955a967,Second,22,21,F,0.19744948100000004
73,38,C_exp1,0.809259344,0.864318182,50.47,151,168,62c44a8fe4ea84ea1955a967,Second,22,21,F,0.055058838
73,45,B_exp1,0.968518575,0.99,14.13,178,170,62c44a8fe4ea84ea1955a967,Second,22,21,F,0.021481424999999943
73,41,A_exp1,0.850926011,0.918181818,39.66,161,171,62c44a8fe4ea84ea1955a967,Second,22,21,F,0.067255807
73,17,A_exp1,0.22129631,0.487272727,88.33,65,172,62c44a8fe4ea84ea1955a967,Second,22,21,F,0.265976417
73,3,D_exp1,0.197222215,0.235909091,97.87,12,173,62c44a8fe4ea84ea1955a967,Second,22,21,F,0.03868687599999998
73,28,A_exp1,0.189814815,0.684772727,73.36,109,174,62c44a8fe4ea84ea1955a967,Second,22,21,F,0.49495791200000006
73,26,C_exp1,0.398148148,0.648863636,76.62,103,175,62c44a8fe4ea84ea1955a967,Second,22,21,F,0.250715488
73,37,C_exp1,0.637037065,0.846363636,53.4,147,176,62c44a8fe4ea84ea1955a967,Second,22,21,F,0.20932657099999996
73,24,D_exp1,0.453703704,0.612954545,79.66,96,177,62c44a8fe4ea84ea1955a967,Second,22,21,F,0.15925084100000003
73,21,B_exp1,0.418518561,0.559090909,83.77,82,178,62c44a8fe4ea84ea1955a967,Second,22,21,F,0.140572348
73,27,A_exp1,0.368518547,0.666818182,75.05,105,179,62c44a8fe4ea84ea1955a967,Second,22,21,F,0.298299635
73,4,B_exp1,0.262962977,0.253863636,97.45,14,180,62c44a8fe4ea84ea1955a967,Second,22,21,F,-0.009099340999999983
73,22,B_exp1,0.321296339,0.577045455,82.45,86,181,62c44a8fe4ea84ea1955a967,Second,22,21,F,0.25574911600000005
73,8,A_exp1,0.358333376,0.325681818,95.52,29,182,62c44a8fe4ea84ea1955a967,Second,22,21,F,-0.03265155799999997
73,37,A_exp1,0.487037023,0.846363636,53.4,145,183,62c44a8fe4ea84ea1955a967,Second,22,21,F,0.35932661299999996
73,13,A_exp1,0.369444459,0.415454545,91.98,49,184,62c44a8fe4ea84ea1955a967,Second,22,21,F,0.046010086000000006
73,44,C_exp1,0.892592677,0.972045455,23.65,175,185,62c44a8fe4ea84ea1955a967,Second,22,21,F,0.07945277799999995
46,23,D_exp1,0.542592593,0.595,81.13,92,0,62c44b1bd2a0c1fdfe3a3b2d,First,23,36,F,0.05240740700000002
46,14,C_exp1,NA,0.433409091,91.2,55,1,62c44b1bd2a0c1fdfe3a3b2d,First,23,36,F,NA
46,26,A_exp1,0.625925926,0.648863636,76.62,101,2,62c44b1bd2a0c1fdfe3a3b2d,First,23,36,F,0.02293771
46,32,D_exp1,0.586111111,0.756590909,65.73,128,3,62c44b1bd2a0c1fdfe3a3b2d,First,23,36,F,0.17047979800000002
46,11,D_exp1,0.283333333,0.379545455,93.55,44,4,62c44b1bd2a0c1fdfe3a3b2d,First,23,36,F,0.09621212199999996
46,13,A_exp1,0.350925926,0.415454545,91.98,49,5,62c44b1bd2a0c1fdfe3a3b2d,First,23,36,F,0.06452861900000001
46,20,A_exp1,0.372222222,0.541136364,85.04,77,6,62c44b1bd2a0c1fdfe3a3b2d,First,23,36,F,0.168914142
46,13,B_exp1,0.22037037,0.415454545,91.98,50,7,62c44b1bd2a0c1fdfe3a3b2d,First,23,36,F,0.195084175
46,15,A_exp1,0.182407407,0.451363636,90.29,57,8,62c44b1bd2a0c1fdfe3a3b2d,First,23,36,F,0.26895622900000005
46,44,B_exp1,0.889814815,0.972045455,23.65,174,9,62c44b1bd2a0c1fdfe3a3b2d,First,23,36,F,0.08223063999999991
46,23,A_exp1,0.24537037,0.595,81.13,89,10,62c44b1bd2a0c1fdfe3a3b2d,First,23,36,F,0.34962962999999997
46,15,B_exp1,0.265740741,0.451363636,90.29,58,11,62c44b1bd2a0c1fdfe3a3b2d,First,23,36,F,0.185622895
46,35,D_exp1,0.606481481,0.810454545,58.87,140,12,62c44b1bd2a0c1fdfe3a3b2d,First,23,36,F,0.20397306400000004
46,23,B_exp1,0.455555556,0.595,81.13,90,13,62c44b1bd2a0c1fdfe3a3b2d,First,23,36,F,0.139444444
46,16,D_exp1,0.258333333,0.469318182,89.4,64,14,62c44b1bd2a0c1fdfe3a3b2d,First,23,36,F,0.21098484899999997
46,33,D_exp1,0.692592593,0.774545455,63.57,132,15,62c44b1bd2a0c1fdfe3a3b2d,First,23,36,F,0.08195286200000007
46,34,B_exp1,0.350925926,0.7925,61.29,134,17,62c44b1bd2a0c1fdfe3a3b2d,First,23,36,F,0.441574074
46,39,A_exp1,0.761111111,0.882272727,47.19,153,18,62c44b1bd2a0c1fdfe3a3b2d,First,23,36,F,0.12116161600000008
46,36,B_exp1,0.555555556,0.828409091,56.22,142,19,62c44b1bd2a0c1fdfe3a3b2d,First,23,36,F,0.2728535350000001
46,7,C_exp1,0.261111111,0.307727273,96.03,27,20,62c44b1bd2a0c1fdfe3a3b2d,First,23,36,F,0.046616162000000017
46,37,C_exp1,0.674074074,0.846363636,53.4,147,21,62c44b1bd2a0c1fdfe3a3b2d,First,23,36,F,0.172289562
46,39,B_exp1,0.753703704,0.882272727,47.19,154,22,62c44b1bd2a0c1fdfe3a3b2d,First,23,36,F,0.12856902300000006
46,31,D_exp1,0.613888889,0.738636364,67.86,124,23,62c44b1bd2a0c1fdfe3a3b2d,First,23,36,F,0.12474747499999994
46,8,C_exp1,0.123148148,0.325681818,95.52,31,24,62c44b1bd2a0c1fdfe3a3b2d,First,23,36,F,0.20253367
46,40,B_exp1,0.898148148,0.900227273,43.56,158,25,62c44b1bd2a0c1fdfe3a3b2d,First,23,36,F,0.0020791250000000705
46,18,B_exp1,0.103703704,0.505227273,87.36,70,26,62c44b1bd2a0c1fdfe3a3b2d,First,23,36,F,0.401523569
46,37,B_exp1,0.635185185,0.846363636,53.4,146,27,62c44b1bd2a0c1fdfe3a3b2d,First,23,36,F,0.211178451
46,3,B_exp1,0.057407407,0.235909091,97.87,10,28,62c44b1bd2a0c1fdfe3a3b2d,First,23,36,F,0.178501684
46,6,D_exp1,0.207407407,0.289772727,96.58,24,29,62c44b1bd2a0c1fdfe3a3b2d,First,23,36,F,0.08236532000000002
46,30,D_exp1,0.611111111,0.720681818,69.76,120,30,62c44b1bd2a0c1fdfe3a3b2d,First,23,36,F,0.10957070699999993
46,43,B_exp1,0.942592593,0.954090909,30.04,170,31,62c44b1bd2a0c1fdfe3a3b2d,First,23,36,F,0.011498316000000064
46,40,A_exp1,0.743518519,0.900227273,43.56,157,32,62c44b1bd2a0c1fdfe3a3b2d,First,23,36,F,0.15670875400000006
46,20,B_exp1,0.075925926,0.541136364,85.04,78,33,62c44b1bd2a0c1fdfe3a3b2d,First,23,36,F,0.46521043799999995
46,40,C_exp1,0.859259259,0.900227273,43.56,159,34,62c44b1bd2a0c1fdfe3a3b2d,First,23,36,F,0.04096801400000005
46,39,D_exp1,0.776851852,0.882272727,47.19,156,35,62c44b1bd2a0c1fdfe3a3b2d,First,23,36,F,0.10542087500000008
46,10,C_exp1,0.082407407,0.361590909,94.23,39,36,62c44b1bd2a0c1fdfe3a3b2d,First,23,36,F,0.27918350200000003
46,6,C_exp1,0.17037037,0.289772727,96.58,23,37,62c44b1bd2a0c1fdfe3a3b2d,First,23,36,F,0.11940235700000001
46,29,A_exp1,0.126851852,0.702727273,71.6,113,38,62c44b1bd2a0c1fdfe3a3b2d,First,23,36,F,0.5758754210000001
46,13,C_exp1,0.121296296,0.415454545,91.98,51,39,62c44b1bd2a0c1fdfe3a3b2d,First,23,36,F,0.294158249
46,39,C_exp1,0.826851852,0.882272727,47.19,155,40,62c44b1bd2a0c1fdfe3a3b2d,First,23,36,F,0.055420875000000036
46,27,A_exp1,0.247222222,0.666818182,75.05,105,41,62c44b1bd2a0c1fdfe3a3b2d,First,23,36,F,0.41959596
46,28,A_exp1,0.178703704,0.684772727,73.36,109,42,62c44b1bd2a0c1fdfe3a3b2d,First,23,36,F,0.506069023
46,44,A_exp1,0.933333333,0.972045455,23.65,173,43,62c44b1bd2a0c1fdfe3a3b2d,First,23,36,F,0.03871212199999996
46,31,C_exp1,0.260185185,0.738636364,67.86,123,44,62c44b1bd2a0c1fdfe3a3b2d,First,23,36,F,0.478451179
46,2,D_exp1,0.114814815,0.217954545,98.2,8,45,62c44b1bd2a0c1fdfe3a3b2d,First,23,36,F,0.10313973
46,35,C_exp1,0.685185185,0.810454545,58.87,139,46,62c44b1bd2a0c1fdfe3a3b2d,First,23,36,F,0.12526936
46,13,D_exp1,0.123148148,0.415454545,91.98,52,47,62c44b1bd2a0c1fdfe3a3b2d,First,23,36,F,0.292306397
46,8,B_exp1,0.087037037,0.325681818,95.52,30,48,62c44b1bd2a0c1fdfe3a3b2d,First,23,36,F,0.23864478100000003
46,34,C_exp1,0.269444444,0.7925,61.29,135,49,62c44b1bd2a0c1fdfe3a3b2d,First,23,36,F,0.523055556
46,29,C_exp1,0.192592593,0.702727273,71.6,115,50,62c44b1bd2a0c1fdfe3a3b2d,First,23,36,F,0.5101346800000001
46,5,D_exp1,0.113888889,0.271818182,96.99,20,51,62c44b1bd2a0c1fdfe3a3b2d,First,23,36,F,0.15792929300000003
46,41,D_exp1,0.846296296,0.918181818,39.66,164,52,62c44b1bd2a0c1fdfe3a3b2d,First,23,36,F,0.07188552199999998
46,31,A_exp1,0.318518519,0.738636364,67.86,121,54,62c44b1bd2a0c1fdfe3a3b2d,First,23,36,F,0.420117845
46,15,C_exp1,0.193518519,0.451363636,90.29,59,55,62c44b1bd2a0c1fdfe3a3b2d,First,23,36,F,0.257845117
46,42,D_exp1,0.872222222,0.936136364,35.25,168,56,62c44b1bd2a0c1fdfe3a3b2d,First,23,36,F,0.06391414200000001
46,17,A_exp1,0.219444444,0.487272727,88.33,65,57,62c44b1bd2a0c1fdfe3a3b2d,First,23,36,F,0.26782828300000006
46,37,A_exp1,0.680555556,0.846363636,53.4,145,58,62c44b1bd2a0c1fdfe3a3b2d,First,23,36,F,0.16580808000000002
46,27,C_exp1,0.287037037,0.666818182,75.05,107,59,62c44b1bd2a0c1fdfe3a3b2d,First,23,36,F,0.379781145
46,42,A_exp1,0.913888889,0.936136364,35.25,165,60,62c44b1bd2a0c1fdfe3a3b2d,First,23,36,F,0.022247475000000017
46,7,B_exp1,0.137037037,0.307727273,96.03,26,61,62c44b1bd2a0c1fdfe3a3b2d,First,23,36,F,0.17069023600000002
46,43,D_exp1,0.862037037,0.954090909,30.04,172,62,62c44b1bd2a0c1fdfe3a3b2d,First,23,36,F,0.09205387200000004
46,18,D_exp1,0.192592593,0.505227273,87.36,72,63,62c44b1bd2a0c1fdfe3a3b2d,First,23,36,F,0.31263468000000005
46,45,B_exp1,0.944444444,0.99,14.13,178,64,62c44b1bd2a0c1fdfe3a3b2d,First,23,36,F,0.04555555599999994
46,3,C_exp1,0.081481481,0.235909091,97.87,11,65,62c44b1bd2a0c1fdfe3a3b2d,First,23,36,F,0.15442761
46,5,B_exp1,0.146296296,0.271818182,96.99,18,66,62c44b1bd2a0c1fdfe3a3b2d,First,23,36,F,0.12552188600000003
46,4,C_exp1,0.130555556,0.253863636,97.45,15,67,62c44b1bd2a0c1fdfe3a3b2d,First,23,36,F,0.12330808000000001
46,35,A_exp1,0.294444444,0.810454545,58.87,137,68,62c44b1bd2a0c1fdfe3a3b2d,First,23,36,F,0.516010101
46,26,D_exp1,0.22037037,0.648863636,76.62,104,69,62c44b1bd2a0c1fdfe3a3b2d,First,23,36,F,0.42849326599999993
46,32,B_exp1,0.32962963,0.756590909,65.73,126,70,62c44b1bd2a0c1fdfe3a3b2d,First,23,36,F,0.426961279
46,20,D_exp1,0.339814815,0.541136364,85.04,80,71,62c44b1bd2a0c1fdfe3a3b2d,First,23,36,F,0.201321549
46,3,A_exp1,0.239814815,0.235909091,97.87,9,72,62c44b1bd2a0c1fdfe3a3b2d,First,23,36,F,-0.0039057239999999993
46,34,A_exp1,0.637037037,0.7925,61.29,133,73,62c44b1bd2a0c1fdfe3a3b2d,First,23,36,F,0.15546296299999995
46,14,D_exp1,0.35462963,0.433409091,91.2,56,74,62c44b1bd2a0c1fdfe3a3b2d,First,23,36,F,0.07877946100000005
46,14,B_exp1,0.255555556,0.433409091,91.2,54,75,62c44b1bd2a0c1fdfe3a3b2d,First,23,36,F,0.177853535
46,22,D_exp1,0.282407407,0.577045455,82.45,88,76,62c44b1bd2a0c1fdfe3a3b2d,First,23,36,F,0.29463804800000004
46,21,D_exp1,0.375925926,0.559090909,83.77,84,77,62c44b1bd2a0c1fdfe3a3b2d,First,23,36,F,0.183164983
46,10,D_exp1,0.378703704,0.361590909,94.23,40,78,62c44b1bd2a0c1fdfe3a3b2d,First,23,36,F,-0.01711279499999996
46,44,D_exp1,0.853703704,0.972045455,23.65,176,79,62c44b1bd2a0c1fdfe3a3b2d,First,23,36,F,0.118341751
46,20,C_exp1,0.503703704,0.541136364,85.04,79,80,62c44b1bd2a0c1fdfe3a3b2d,First,23,36,F,0.037432660000000006
46,7,D_exp1,0.414814815,0.307727273,96.03,28,81,62c44b1bd2a0c1fdfe3a3b2d,First,23,36,F,-0.10708754199999998
46,28,C_exp1,0.348148148,0.684772727,73.36,111,82,62c44b1bd2a0c1fdfe3a3b2d,First,23,36,F,0.33662457900000003
46,35,B_exp1,0.583333333,0.810454545,58.87,138,83,62c44b1bd2a0c1fdfe3a3b2d,First,23,36,F,0.22712121200000002
46,29,D_exp1,0.590740741,0.702727273,71.6,116,84,62c44b1bd2a0c1fdfe3a3b2d,First,23,36,F,0.11198653200000008
46,36,D_exp1,0.807407407,0.828409091,56.22,144,85,62c44b1bd2a0c1fdfe3a3b2d,First,23,36,F,0.02100168400000002
46,30,B_exp1,0.569444444,0.720681818,69.76,118,86,62c44b1bd2a0c1fdfe3a3b2d,First,23,36,F,0.15123737399999992
46,2,A_exp1,0.248148148,0.217954545,98.2,5,87,62c44b1bd2a0c1fdfe3a3b2d,First,23,36,F,-0.030193603000000013
46,38,C_exp1,0.860185185,0.864318182,50.47,151,88,62c44b1bd2a0c1fdfe3a3b2d,First,23,36,F,0.004132997000000027
46,27,D_exp1,0.699074074,0.666818182,75.05,108,89,62c44b1bd2a0c1fdfe3a3b2d,First,23,36,F,-0.03225589200000001
46,36,A_exp1,0.607407407,0.828409091,56.22,141,90,62c44b1bd2a0c1fdfe3a3b2d,First,23,36,F,0.2210016840000001
46,27,B_exp1,0.512037037,0.666818182,75.05,106,91,62c44b1bd2a0c1fdfe3a3b2d,First,23,36,F,0.15478114499999995
46,25,C_exp1,0.571296296,0.630909091,78.2,99,92,62c44b1bd2a0c1fdfe3a3b2d,First,23,36,F,0.05961279500000005
46,3,D_exp1,0.630555556,0.235909091,97.87,12,93,62c44b1bd2a0c1fdfe3a3b2d,Second,23,36,F,-0.394646465
46,12,C_exp1,0.573148148,0.3975,92.82,47,94,62c44b1bd2a0c1fdfe3a3b2d,Second,23,36,F,-0.175648148
46,2,B_exp1,0.381481481,0.217954545,98.2,6,95,62c44b1bd2a0c1fdfe3a3b2d,Second,23,36,F,-0.163526936
46,41,B_exp1,0.837037037,0.918181818,39.66,162,96,62c44b1bd2a0c1fdfe3a3b2d,Second,23,36,F,0.081144781
46,38,B_exp1,0.737037037,0.864318182,50.47,150,97,62c44b1bd2a0c1fdfe3a3b2d,Second,23,36,F,0.12728114499999998
46,21,C_exp1,0.559259259,0.559090909,83.77,83,98,62c44b1bd2a0c1fdfe3a3b2d,Second,23,36,F,-1.6834999999992828e-4
46,9,C_exp1,0.210185185,0.343636364,94.9,35,99,62c44b1bd2a0c1fdfe3a3b2d,Second,23,36,F,0.13345117900000003
46,34,D_exp1,0.67962963,0.7925,61.29,136,100,62c44b1bd2a0c1fdfe3a3b2d,Second,23,36,F,0.11287037
46,25,B_exp1,0.337037037,0.630909091,78.2,98,101,62c44b1bd2a0c1fdfe3a3b2d,Second,23,36,F,0.29387205400000005
46,4,D_exp1,0.357407407,0.253863636,97.45,16,102,62c44b1bd2a0c1fdfe3a3b2d,Second,23,36,F,-0.103543771
46,32,A_exp1,0.361111111,0.756590909,65.73,125,103,62c44b1bd2a0c1fdfe3a3b2d,Second,23,36,F,0.39547979800000005
46,10,A_exp1,0.173148148,0.361590909,94.23,37,104,62c44b1bd2a0c1fdfe3a3b2d,Second,23,36,F,0.18844276100000001
46,2,C_exp1,0.266666667,0.217954545,98.2,7,105,62c44b1bd2a0c1fdfe3a3b2d,Second,23,36,F,-0.048712122000000024
46,24,B_exp1,0.54537037,0.612954545,79.66,94,106,62c44b1bd2a0c1fdfe3a3b2d,Second,23,36,F,0.06758417500000002
46,30,C_exp1,0.59537037,0.720681818,69.76,119,107,62c44b1bd2a0c1fdfe3a3b2d,Second,23,36,F,0.12531144799999994
46,21,B_exp1,0.215740741,0.559090909,83.77,82,108,62c44b1bd2a0c1fdfe3a3b2d,Second,23,36,F,0.343350168
46,12,D_exp1,0.248148148,0.3975,92.82,48,109,62c44b1bd2a0c1fdfe3a3b2d,Second,23,36,F,0.149351852
46,11,A_exp1,0.248148148,0.379545455,93.55,41,110,62c44b1bd2a0c1fdfe3a3b2d,Second,23,36,F,0.13139730699999996
46,23,C_exp1,0.707407407,0.595,81.13,91,111,62c44b1bd2a0c1fdfe3a3b2d,Second,23,36,F,-0.11240740700000007
46,5,A_exp1,0.236111111,0.271818182,96.99,17,112,62c44b1bd2a0c1fdfe3a3b2d,Second,23,36,F,0.03570707100000001
46,11,B_exp1,0.709259259,0.379545455,93.55,42,113,62c44b1bd2a0c1fdfe3a3b2d,Second,23,36,F,-0.329713804
46,42,B_exp1,0.887962963,0.936136364,35.25,166,114,62c44b1bd2a0c1fdfe3a3b2d,Second,23,36,F,0.048173401000000005
46,33,B_exp1,0.836111111,0.774545455,63.57,130,115,62c44b1bd2a0c1fdfe3a3b2d,Second,23,36,F,-0.06156565599999997
46,7,A_exp1,0.187037037,0.307727273,96.03,25,116,62c44b1bd2a0c1fdfe3a3b2d,Second,23,36,F,0.12069023600000003
46,38,D_exp1,0.881481481,0.864318182,50.47,152,117,62c44b1bd2a0c1fdfe3a3b2d,Second,23,36,F,-0.01716329900000002
46,19,A_exp1,0.331481481,0.523181818,86.21,73,118,62c44b1bd2a0c1fdfe3a3b2d,Second,23,36,F,0.19170033699999994
46,36,C_exp1,0.862037037,0.828409091,56.22,143,119,62c44b1bd2a0c1fdfe3a3b2d,Second,23,36,F,-0.033627945999999964
46,4,B_exp1,0.248148148,0.253863636,97.45,14,120,62c44b1bd2a0c1fdfe3a3b2d,Second,23,36,F,0.005715487999999991
46,17,D_exp1,0.174074074,0.487272727,88.33,68,122,62c44b1bd2a0c1fdfe3a3b2d,Second,23,36,F,0.31319865300000005
46,12,A_exp1,0.273148148,0.3975,92.82,45,123,62c44b1bd2a0c1fdfe3a3b2d,Second,23,36,F,0.12435185200000004
46,17,C_exp1,0.274074074,0.487272727,88.33,67,124,62c44b1bd2a0c1fdfe3a3b2d,Second,23,36,F,0.21319865300000002
46,26,C_exp1,0.425,0.648863636,76.62,103,125,62c44b1bd2a0c1fdfe3a3b2d,Second,23,36,F,0.22386363599999998
46,43,A_exp1,0.84537037,0.954090909,30.04,169,126,62c44b1bd2a0c1fdfe3a3b2d,Second,23,36,F,0.108720539
46,11,C_exp1,0.205555556,0.379545455,93.55,43,128,62c44b1bd2a0c1fdfe3a3b2d,Second,23,36,F,0.17398989899999998
46,19,B_exp1,0.321296296,0.523181818,86.21,74,130,62c44b1bd2a0c1fdfe3a3b2d,Second,23,36,F,0.20188552199999998
46,5,C_exp1,0.337962963,0.271818182,96.99,19,131,62c44b1bd2a0c1fdfe3a3b2d,Second,23,36,F,-0.06614478099999999
46,24,A_exp1,0.487962963,0.612954545,79.66,93,132,62c44b1bd2a0c1fdfe3a3b2d,Second,23,36,F,0.12499158199999999
46,24,C_exp1,0.576851852,0.612954545,79.66,95,133,62c44b1bd2a0c1fdfe3a3b2d,Second,23,36,F,0.03610269300000002
46,18,C_exp1,0.582407407,0.505227273,87.36,71,134,62c44b1bd2a0c1fdfe3a3b2d,Second,23,36,F,-0.07718013400000001
46,4,A_exp1,0.323148148,0.253863636,97.45,13,135,62c44b1bd2a0c1fdfe3a3b2d,Second,23,36,F,-0.06928451200000002
46,22,B_exp1,0.477777778,0.577045455,82.45,86,136,62c44b1bd2a0c1fdfe3a3b2d,Second,23,36,F,0.09926767700000005
46,45,C_exp1,0.953703704,0.99,14.13,179,137,62c44b1bd2a0c1fdfe3a3b2d,Second,23,36,F,0.03629629599999995
46,45,A_exp1,0.939814815,0.99,14.13,177,138,62c44b1bd2a0c1fdfe3a3b2d,Second,23,36,F,0.05018518500000002
46,28,B_exp1,0.719444444,0.684772727,73.36,110,139,62c44b1bd2a0c1fdfe3a3b2d,Second,23,36,F,-0.034671716999999935
46,8,A_exp1,0.257407407,0.325681818,95.52,29,140,62c44b1bd2a0c1fdfe3a3b2d,Second,23,36,F,0.06827441100000003
46,17,B_exp1,0.480555556,0.487272727,88.33,66,141,62c44b1bd2a0c1fdfe3a3b2d,Second,23,36,F,0.006717171000000022
46,30,A_exp1,0.583333333,0.720681818,69.76,117,142,62c44b1bd2a0c1fdfe3a3b2d,Second,23,36,F,0.13734848499999996
46,1,D_exp1,0.292592593,0.2,98.47,4,143,62c44b1bd2a0c1fdfe3a3b2d,Second,23,36,F,-0.092592593
46,10,B_exp1,0.303703704,0.361590909,94.23,38,144,62c44b1bd2a0c1fdfe3a3b2d,Second,23,36,F,0.057887205
46,18,A_exp1,0.223148148,0.505227273,87.36,69,145,62c44b1bd2a0c1fdfe3a3b2d,Second,23,36,F,0.28207912500000004
46,22,A_exp1,0.24537037,0.577045455,82.45,85,146,62c44b1bd2a0c1fdfe3a3b2d,Second,23,36,F,0.33167508500000004
46,41,A_exp1,0.708333333,0.918181818,39.66,161,147,62c44b1bd2a0c1fdfe3a3b2d,Second,23,36,F,0.20984848499999997
46,29,B_exp1,0.775,0.702727273,71.6,114,148,62c44b1bd2a0c1fdfe3a3b2d,Second,23,36,F,-0.07227272699999998
46,28,D_exp1,0.69351851900000006,0.684772727,73.36,112,149,62c44b1bd2a0c1fdfe3a3b2d,Second,23,36,F,-0.00874579200000003
46,33,C_exp1,0.699074074,0.774545455,63.57,131,150,62c44b1bd2a0c1fdfe3a3b2d,Second,23,36,F,0.07547138100000006
46,25,A_exp1,0.52037037,0.630909091,78.2,97,151,62c44b1bd2a0c1fdfe3a3b2d,Second,23,36,F,0.11053872100000006
46,6,A_exp1,0.261111111,0.289772727,96.58,21,152,62c44b1bd2a0c1fdfe3a3b2d,Second,23,36,F,0.028661616
46,12,B_exp1,0.249074074,0.3975,92.82,46,153,62c44b1bd2a0c1fdfe3a3b2d,Second,23,36,F,0.148425926
46,22,C_exp1,0.299074074,0.577045455,82.45,87,154,62c44b1bd2a0c1fdfe3a3b2d,Second,23,36,F,0.277971381
46,19,D_exp1,0.209259259,0.523181818,86.21,76,155,62c44b1bd2a0c1fdfe3a3b2d,Second,23,36,F,0.313922559
46,9,B_exp1,0.249074074,0.343636364,94.9,34,156,62c44b1bd2a0c1fdfe3a3b2d,Second,23,36,F,0.09456229000000002
46,1,A_exp1,0.091666667,0.2,98.47,1,157,62c44b1bd2a0c1fdfe3a3b2d,Second,23,36,F,0.10833333300000002
46,38,A_exp1,0.780555556,0.864318182,50.47,149,158,62c44b1bd2a0c1fdfe3a3b2d,Second,23,36,F,0.08376262599999995
46,1,C_exp1,0.111111111,0.2,98.47,3,159,62c44b1bd2a0c1fdfe3a3b2d,Second,23,36,F,0.08888888900000001
46,41,C_exp1,0.900925926,0.918181818,39.66,163,160,62c44b1bd2a0c1fdfe3a3b2d,Second,23,36,F,0.017255891999999995
46,43,C_exp1,0.884259259,0.954090909,30.04,171,161,62c44b1bd2a0c1fdfe3a3b2d,Second,23,36,F,0.06983165000000002
46,6,B_exp1,0.084259259,0.289772727,96.58,22,162,62c44b1bd2a0c1fdfe3a3b2d,Second,23,36,F,0.205513468
46,40,D_exp1,0.881481481,0.900227273,43.56,160,164,62c44b1bd2a0c1fdfe3a3b2d,Second,23,36,F,0.01874579200000004
46,37,D_exp1,0.782407407,0.846363636,53.4,148,165,62c44b1bd2a0c1fdfe3a3b2d,Second,23,36,F,0.06395622899999998
46,16,A_exp1,0.143518519,0.469318182,89.4,61,166,62c44b1bd2a0c1fdfe3a3b2d,Second,23,36,F,0.32579966299999996
46,31,B_exp1,0.613888889,0.738636364,67.86,122,167,62c44b1bd2a0c1fdfe3a3b2d,Second,23,36,F,0.12474747499999994
46,32,C_exp1,0.632407407,0.756590909,65.73,127,168,62c44b1bd2a0c1fdfe3a3b2d,Second,23,36,F,0.12418350200000006
46,8,D_exp1,0.124074074,0.325681818,95.52,32,169,62c44b1bd2a0c1fdfe3a3b2d,Second,23,36,F,0.201607744
46,15,D_exp1,0.192592593,0.451363636,90.29,60,170,62c44b1bd2a0c1fdfe3a3b2d,Second,23,36,F,0.258771043
46,19,C_exp1,0.564814815,0.523181818,86.21,75,171,62c44b1bd2a0c1fdfe3a3b2d,Second,23,36,F,-0.041632997000000005
46,44,C_exp1,0.896296296,0.972045455,23.65,175,172,62c44b1bd2a0c1fdfe3a3b2d,Second,23,36,F,0.0757491589999999
46,33,A_exp1,0.178703704,0.774545455,63.57,129,173,62c44b1bd2a0c1fdfe3a3b2d,Second,23,36,F,0.595841751
46,24,D_exp1,0.39537037,0.612954545,79.66,96,174,62c44b1bd2a0c1fdfe3a3b2d,Second,23,36,F,0.217584175
46,16,C_exp1,0.259259259,0.469318182,89.4,63,175,62c44b1bd2a0c1fdfe3a3b2d,Second,23,36,F,0.21005892299999995
46,25,D_exp1,0.260185185,0.630909091,78.2,100,176,62c44b1bd2a0c1fdfe3a3b2d,Second,23,36,F,0.37072390600000005
46,14,A_exp1,0.264814815,0.433409091,91.2,53,177,62c44b1bd2a0c1fdfe3a3b2d,Second,23,36,F,0.16859427600000004
46,45,D_exp1,0.942592593,0.99,14.13,180,178,62c44b1bd2a0c1fdfe3a3b2d,Second,23,36,F,0.04740740700000001
46,42,C_exp1,0.773148148,0.936136364,35.25,167,179,62c44b1bd2a0c1fdfe3a3b2d,Second,23,36,F,0.16298821600000002
46,9,D_exp1,0.139814815,0.343636364,94.9,36,180,62c44b1bd2a0c1fdfe3a3b2d,Second,23,36,F,0.20382154900000002
46,1,B_exp1,0.118518519,0.2,98.47,2,181,62c44b1bd2a0c1fdfe3a3b2d,Second,23,36,F,0.08148148100000001
46,21,A_exp1,0.124074074,0.559090909,83.77,81,182,62c44b1bd2a0c1fdfe3a3b2d,Second,23,36,F,0.435016835
46,9,A_exp1,0.223148148,0.343636364,94.9,33,183,62c44b1bd2a0c1fdfe3a3b2d,Second,23,36,F,0.12048821600000004
46,16,B_exp1,0.288888889,0.469318182,89.4,62,184,62c44b1bd2a0c1fdfe3a3b2d,Second,23,36,F,0.180429293
46,26,B_exp1,0.22037037,0.648863636,76.62,102,185,62c44b1bd2a0c1fdfe3a3b2d,Second,23,36,F,0.42849326599999993
66,39,A_exp1,0.83984375,0.882272727,47.19,153,0,62c44b934a84f8e4a1c9c017,First,17,21,F,0.042428977000000034
66,2,C_exp1,0.20703125,0.217954545,98.2,7,1,62c44b934a84f8e4a1c9c017,First,17,21,F,0.010923295
66,23,C_exp1,0.610677083,0.595,81.13,91,2,62c44b934a84f8e4a1c9c017,First,17,21,F,-0.015677083000000036
66,16,D_exp1,0.549479167,0.469318182,89.4,64,3,62c44b934a84f8e4a1c9c017,First,17,21,F,-0.08016098500000002
66,40,A_exp1,0.82421875,0.900227273,43.56,157,4,62c44b934a84f8e4a1c9c017,First,17,21,F,0.07600852300000005
66,37,C_exp1,0.778645833,0.846363636,53.4,147,5,62c44b934a84f8e4a1c9c017,First,17,21,F,0.06771780299999997
66,36,A_exp1,0.716145833,0.828409091,56.22,141,6,62c44b934a84f8e4a1c9c017,First,17,21,F,0.11226325800000003
66,21,D_exp1,0.419270833,0.559090909,83.77,84,7,62c44b934a84f8e4a1c9c017,First,17,21,F,0.13982007600000002
66,7,A_exp1,0.1171875,0.307727273,96.03,25,8,62c44b934a84f8e4a1c9c017,First,17,21,F,0.19053977300000002
66,34,C_exp1,0.509114583,0.7925,61.29,135,9,62c44b934a84f8e4a1c9c017,First,17,21,F,0.283385417
66,24,D_exp1,0.4140625,0.612954545,79.66,96,10,62c44b934a84f8e4a1c9c017,First,17,21,F,0.19889204500000002
66,24,B_exp1,0.540364583,0.612954545,79.66,94,11,62c44b934a84f8e4a1c9c017,First,17,21,F,0.07258996200000001
66,2,B_exp1,0.235677083,0.217954545,98.2,6,12,62c44b934a84f8e4a1c9c017,First,17,21,F,-0.01772253800000001
66,25,B_exp1,0.416666667,0.630909091,78.2,98,13,62c44b934a84f8e4a1c9c017,First,17,21,F,0.21424242400000004
66,39,C_exp1,0.924479167,0.882272727,47.19,155,14,62c44b934a84f8e4a1c9c017,First,17,21,F,-0.042206439999999956
66,10,B_exp1,0.326822917,0.361590909,94.23,38,15,62c44b934a84f8e4a1c9c017,First,17,21,F,0.034767992000000025
66,37,D_exp1,0.70703125,0.846363636,53.4,148,16,62c44b934a84f8e4a1c9c017,First,17,21,F,0.13933238599999997
66,32,A_exp1,0.649739583,0.756590909,65.73,125,17,62c44b934a84f8e4a1c9c017,First,17,21,F,0.10685132600000002
66,23,B_exp1,0.53125,0.595,81.13,90,18,62c44b934a84f8e4a1c9c017,First,17,21,F,0.06374999999999997
66,19,A_exp1,0.376302083,0.523181818,86.21,73,19,62c44b934a84f8e4a1c9c017,First,17,21,F,0.14687973499999996
66,13,A_exp1,0.251302083,0.415454545,91.98,49,20,62c44b934a84f8e4a1c9c017,First,17,21,F,0.164152462
66,15,B_exp1,0.19921875,0.451363636,90.29,58,21,62c44b934a84f8e4a1c9c017,First,17,21,F,0.252144886
66,31,B_exp1,0.358072917,0.738636364,67.86,122,22,62c44b934a84f8e4a1c9c017,First,17,21,F,0.380563447
66,5,D_exp1,0.358072917,0.271818182,96.99,20,23,62c44b934a84f8e4a1c9c017,First,17,21,F,-0.08625473499999997
66,5,A_exp1,0.208333333,0.271818182,96.99,17,24,62c44b934a84f8e4a1c9c017,First,17,21,F,0.06348484900000001
66,21,C_exp1,0.614583333,0.559090909,83.77,83,25,62c44b934a84f8e4a1c9c017,First,17,21,F,-0.055492423999999985
66,35,C_exp1,0.880208333,0.810454545,58.87,139,26,62c44b934a84f8e4a1c9c017,First,17,21,F,-0.06975378799999998
66,36,D_exp1,0.92578125,0.828409091,56.22,144,27,62c44b934a84f8e4a1c9c017,First,17,21,F,-0.09737215899999996
66,6,A_exp1,0.345052083,0.289772727,96.58,21,28,62c44b934a84f8e4a1c9c017,First,17,21,F,-0.055279356
66,43,B_exp1,0.963541667,0.954090909,30.04,170,29,62c44b934a84f8e4a1c9c017,First,17,21,F,-0.009450757999999948
66,14,C_exp1,0.3046875,0.433409091,91.2,55,30,62c44b934a84f8e4a1c9c017,First,17,21,F,0.12872159100000002
66,31,C_exp1,0.385416667,0.738636364,67.86,123,31,62c44b934a84f8e4a1c9c017,First,17,21,F,0.353219697
66,45,D_exp1,0.98046875,0.99,14.13,180,32,62c44b934a84f8e4a1c9c017,First,17,21,F,0.009531249999999991
66,37,A_exp1,0.666666667,0.846363636,53.4,145,33,62c44b934a84f8e4a1c9c017,First,17,21,F,0.17969696899999998
66,34,D_exp1,0.760416667,0.7925,61.29,136,34,62c44b934a84f8e4a1c9c017,First,17,21,F,0.03208333299999999
66,35,A_exp1,0.592447917,0.810454545,58.87,137,35,62c44b934a84f8e4a1c9c017,First,17,21,F,0.21800662800000004
66,42,D_exp1,0.877604167,0.936136364,35.25,168,36,62c44b934a84f8e4a1c9c017,First,17,21,F,0.05853219700000001
66,25,C_exp1,0.734375,0.630909091,78.2,99,37,62c44b934a84f8e4a1c9c017,First,17,21,F,-0.10346590899999997
66,32,C_exp1,0.645833333,0.756590909,65.73,127,38,62c44b934a84f8e4a1c9c017,First,17,21,F,0.11075757600000002
66,42,A_exp1,0.950520833,0.936136364,35.25,165,39,62c44b934a84f8e4a1c9c017,First,17,21,F,-0.01438446900000001
66,41,B_exp1,0.890625,0.918181818,39.66,162,40,62c44b934a84f8e4a1c9c017,First,17,21,F,0.027556817999999983
66,44,D_exp1,0.973958333,0.972045455,23.65,176,41,62c44b934a84f8e4a1c9c017,First,17,21,F,-0.0019128780000000623
66,27,A_exp1,0.440104167,0.666818182,75.05,105,42,62c44b934a84f8e4a1c9c017,First,17,21,F,0.226714015
66,44,C_exp1,0.9609375,0.972045455,23.65,175,43,62c44b934a84f8e4a1c9c017,First,17,21,F,0.011107954999999947
66,6,D_exp1,0.1875,0.289772727,96.58,24,44,62c44b934a84f8e4a1c9c017,First,17,21,F,0.10227272700000001
66,29,A_exp1,0.291666667,0.702727273,71.6,113,45,62c44b934a84f8e4a1c9c017,First,17,21,F,0.41106060600000005
66,19,B_exp1,0.305989583,0.523181818,86.21,74,47,62c44b934a84f8e4a1c9c017,First,17,21,F,0.21719223499999996
66,38,D_exp1,0.76171875,0.864318182,50.47,152,48,62c44b934a84f8e4a1c9c017,First,17,21,F,0.10259943199999999
66,35,D_exp1,0.76953125,0.810454545,58.87,140,49,62c44b934a84f8e4a1c9c017,First,17,21,F,0.040923295000000026
66,15,C_exp1,0.348958333,0.451363636,90.29,59,50,62c44b934a84f8e4a1c9c017,First,17,21,F,0.102405303
66,33,A_exp1,0.58984375,0.774545455,63.57,129,51,62c44b934a84f8e4a1c9c017,First,17,21,F,0.18470170500000005
66,11,D_exp1,0.276041667,0.379545455,93.55,44,52,62c44b934a84f8e4a1c9c017,First,17,21,F,0.10350378799999999
66,31,A_exp1,0.352864583,0.738636364,67.86,121,53,62c44b934a84f8e4a1c9c017,First,17,21,F,0.385771781
66,10,A_exp1,0.19921875,0.361590909,94.23,37,54,62c44b934a84f8e4a1c9c017,First,17,21,F,0.16237215900000002
66,7,D_exp1,0.140625,0.307727273,96.03,28,55,62c44b934a84f8e4a1c9c017,First,17,21,F,0.16710227300000002
66,17,A_exp1,0.194010417,0.487272727,88.33,65,56,62c44b934a84f8e4a1c9c017,First,17,21,F,0.29326231
66,10,C_exp1,0.138020833,0.361590909,94.23,39,57,62c44b934a84f8e4a1c9c017,First,17,21,F,0.223570076
66,38,A_exp1,0.71484375,0.864318182,50.47,149,58,62c44b934a84f8e4a1c9c017,First,17,21,F,0.149474432
66,29,D_exp1,0.63671875,0.702727273,71.6,116,59,62c44b934a84f8e4a1c9c017,First,17,21,F,0.06600852300000004
66,8,B_exp1,0.39453125,0.325681818,95.52,30,60,62c44b934a84f8e4a1c9c017,First,17,21,F,-0.06884943199999999
66,33,B_exp1,0.7109375,0.774545455,63.57,130,61,62c44b934a84f8e4a1c9c017,First,17,21,F,0.06360795500000005
66,12,B_exp1,0.375,0.3975,92.82,46,62,62c44b934a84f8e4a1c9c017,First,17,21,F,0.02250000000000002
66,4,C_exp1,0.572916667,0.253863636,97.45,15,63,62c44b934a84f8e4a1c9c017,First,17,21,F,-0.319053031
66,14,A_exp1,0.252604167,0.433409091,91.2,53,64,62c44b934a84f8e4a1c9c017,First,17,21,F,0.18080492400000003
66,5,B_exp1,0.255208333,0.271818182,96.99,18,65,62c44b934a84f8e4a1c9c017,First,17,21,F,0.01660984900000001
66,3,C_exp1,0.178385417,0.235909091,97.87,11,66,62c44b934a84f8e4a1c9c017,First,17,21,F,0.057523674
66,2,D_exp1,0.092447917,0.217954545,98.2,8,67,62c44b934a84f8e4a1c9c017,First,17,21,F,0.125506628
66,18,C_exp1,0.201822917,0.505227273,87.36,71,68,62c44b934a84f8e4a1c9c017,First,17,21,F,0.30340435600000004
66,43,A_exp1,0.955729167,0.954090909,30.04,169,69,62c44b934a84f8e4a1c9c017,First,17,21,F,-0.001638257999999948
66,9,D_exp1,0.444010417,0.343636364,94.9,36,70,62c44b934a84f8e4a1c9c017,First,17,21,F,-0.10037405299999996
66,19,D_exp1,0.412760417,0.523181818,86.21,76,71,62c44b934a84f8e4a1c9c017,First,17,21,F,0.11042140099999997
66,9,B_exp1,0.415364583,0.343636364,94.9,34,72,62c44b934a84f8e4a1c9c017,First,17,21,F,-0.07172821899999998
66,32,B_exp1,0.553385417,0.756590909,65.73,126,73,62c44b934a84f8e4a1c9c017,First,17,21,F,0.20320549200000004
66,19,C_exp1,0.2734375,0.523181818,86.21,75,74,62c44b934a84f8e4a1c9c017,First,17,21,F,0.24974431799999997
66,1,D_exp1,0.485677083,0.2,98.47,4,75,62c44b934a84f8e4a1c9c017,First,17,21,F,-0.285677083
66,30,D_exp1,0.509114583,0.720681818,69.76,120,76,62c44b934a84f8e4a1c9c017,First,17,21,F,0.21156723499999996
66,22,C_exp1,0.43359375,0.577045455,82.45,87,77,62c44b934a84f8e4a1c9c017,First,17,21,F,0.14345170500000004
66,16,C_exp1,0.389322917,0.469318182,89.4,63,78,62c44b934a84f8e4a1c9c017,First,17,21,F,0.07999526499999998
66,42,C_exp1,0.944010417,0.936136364,35.25,167,79,62c44b934a84f8e4a1c9c017,First,17,21,F,-0.007874052999999992
66,26,A_exp1,0.66796875,0.648863636,76.62,101,80,62c44b934a84f8e4a1c9c017,First,17,21,F,-0.019105114000000034
66,22,B_exp1,0.404947917,0.577045455,82.45,86,81,62c44b934a84f8e4a1c9c017,First,17,21,F,0.17209753800000005
66,38,B_exp1,0.66015625,0.864318182,50.47,150,82,62c44b934a84f8e4a1c9c017,First,17,21,F,0.204161932
66,11,A_exp1,0.40234375,0.379545455,93.55,41,83,62c44b934a84f8e4a1c9c017,First,17,21,F,-0.022798295000000024
66,18,B_exp1,0.423177083,0.505227273,87.36,70,84,62c44b934a84f8e4a1c9c017,First,17,21,F,0.08205019000000002
66,45,A_exp1,0.984375,0.99,14.13,177,85,62c44b934a84f8e4a1c9c017,First,17,21,F,0.005624999999999991
66,26,D_exp1,0.64453125,0.648863636,76.62,104,86,62c44b934a84f8e4a1c9c017,First,17,21,F,0.004332385999999966
66,28,B_exp1,0.490885417,0.684772727,73.36,110,87,62c44b934a84f8e4a1c9c017,First,17,21,F,0.19388731000000003
66,35,B_exp1,0.713541667,0.810454545,58.87,138,89,62c44b934a84f8e4a1c9c017,First,17,21,F,0.09691287800000004
66,34,A_exp1,0.615885417,0.7925,61.29,133,90,62c44b934a84f8e4a1c9c017,First,17,21,F,0.176614583
66,3,D_exp1,0.2890625,0.235909091,97.87,12,91,62c44b934a84f8e4a1c9c017,First,17,21,F,-0.05315340900000001
66,12,C_exp1,0.325520833,0.3975,92.82,47,92,62c44b934a84f8e4a1c9c017,First,17,21,F,0.07197916700000001
66,28,D_exp1,0.453125,0.684772727,73.36,112,93,62c44b934a84f8e4a1c9c017,Second,17,21,F,0.23164772700000003
66,33,D_exp1,0.634114583,0.774545455,63.57,132,94,62c44b934a84f8e4a1c9c017,Second,17,21,F,0.14043087200000004
66,12,D_exp1,0.4765625,0.3975,92.82,48,95,62c44b934a84f8e4a1c9c017,Second,17,21,F,-0.07906249999999998
66,27,C_exp1,0.68359375,0.666818182,75.05,107,96,62c44b934a84f8e4a1c9c017,Second,17,21,F,-0.01677556800000002
66,45,C_exp1,0.994791667,0.99,14.13,179,97,62c44b934a84f8e4a1c9c017,Second,17,21,F,-0.0047916669999999995
66,42,B_exp1,0.815104167,0.936136364,35.25,166,98,62c44b934a84f8e4a1c9c017,Second,17,21,F,0.12103219700000001
66,24,A_exp1,0.352864583,0.612954545,79.66,93,99,62c44b934a84f8e4a1c9c017,Second,17,21,F,0.260089962
66,28,C_exp1,0.583333333,0.684772727,73.36,111,100,62c44b934a84f8e4a1c9c017,Second,17,21,F,0.10143939400000002
66,39,B_exp1,0.78515625,0.882272727,47.19,154,101,62c44b934a84f8e4a1c9c017,Second,17,21,F,0.09711647700000003
66,40,D_exp1,0.795572917,0.900227273,43.56,160,102,62c44b934a84f8e4a1c9c017,Second,17,21,F,0.10465435600000006
66,22,D_exp1,0.403645833,0.577045455,82.45,88,103,62c44b934a84f8e4a1c9c017,Second,17,21,F,0.17339962200000003
66,34,B_exp1,0.600260417,0.7925,61.29,134,104,62c44b934a84f8e4a1c9c017,Second,17,21,F,0.192239583
66,11,B_exp1,0.416666667,0.379545455,93.55,42,105,62c44b934a84f8e4a1c9c017,Second,17,21,F,-0.037121212000000015
66,15,D_exp1,0.420572917,0.451363636,90.29,60,106,62c44b934a84f8e4a1c9c017,Second,17,21,F,0.030790719000000022
66,44,B_exp1,0.9765625,0.972045455,23.65,174,107,62c44b934a84f8e4a1c9c017,Second,17,21,F,-0.004517045000000053
66,9,C_exp1,0.420572917,0.343636364,94.9,35,108,62c44b934a84f8e4a1c9c017,Second,17,21,F,-0.07693655299999996
66,41,A_exp1,0.875,0.918181818,39.66,161,109,62c44b934a84f8e4a1c9c017,Second,17,21,F,0.04318181799999998
66,1,C_exp1,0.151041667,0.2,98.47,3,110,62c44b934a84f8e4a1c9c017,Second,17,21,F,0.04895833300000002
66,7,B_exp1,0.186197917,0.307727273,96.03,26,111,62c44b934a84f8e4a1c9c017,Second,17,21,F,0.12152935600000003
66,30,C_exp1,0.59375,0.720681818,69.76,119,112,62c44b934a84f8e4a1c9c017,Second,17,21,F,0.12693181799999997
66,6,C_exp1,0.447916667,0.289772727,96.58,23,113,62c44b934a84f8e4a1c9c017,Second,17,21,F,-0.15814393999999998
66,4,B_exp1,0.27734375,0.253863636,97.45,14,114,62c44b934a84f8e4a1c9c017,Second,17,21,F,-0.023480113999999996
66,26,B_exp1,0.475260417,0.648863636,76.62,102,115,62c44b934a84f8e4a1c9c017,Second,17,21,F,0.17360321899999998
66,15,A_exp1,0.391927083,0.451363636,90.29,57,116,62c44b934a84f8e4a1c9c017,Second,17,21,F,0.059436553
66,16,A_exp1,0.360677083,0.469318182,89.4,61,117,62c44b934a84f8e4a1c9c017,Second,17,21,F,0.10864109899999996
66,25,A_exp1,0.411458333,0.630909091,78.2,97,118,62c44b934a84f8e4a1c9c017,Second,17,21,F,0.21945075800000002
66,43,D_exp1,0.907552083,0.954090909,30.04,172,119,62c44b934a84f8e4a1c9c017,Second,17,21,F,0.04653882600000003
66,10,D_exp1,0.4140625,0.361590909,94.23,40,120,62c44b934a84f8e4a1c9c017,Second,17,21,F,-0.052471590999999984
66,18,A_exp1,0.375,0.505227273,87.36,69,121,62c44b934a84f8e4a1c9c017,Second,17,21,F,0.13022727300000003
66,40,C_exp1,0.846354167,0.900227273,43.56,159,123,62c44b934a84f8e4a1c9c017,Second,17,21,F,0.05387310600000006
66,16,B_exp1,0.395833333,0.469318182,89.4,62,124,62c44b934a84f8e4a1c9c017,Second,17,21,F,0.07348484899999996
66,33,C_exp1,0.697916667,0.774545455,63.57,131,125,62c44b934a84f8e4a1c9c017,Second,17,21,F,0.07662878800000006
66,4,D_exp1,0.408854167,0.253863636,97.45,16,126,62c44b934a84f8e4a1c9c017,Second,17,21,F,-0.154990531
66,9,A_exp1,0.279947917,0.343636364,94.9,33,127,62c44b934a84f8e4a1c9c017,Second,17,21,F,0.06368844700000004
66,12,A_exp1,0.3046875,0.3975,92.82,45,128,62c44b934a84f8e4a1c9c017,Second,17,21,F,0.09281250000000002
66,36,B_exp1,0.73828125,0.828409091,56.22,142,129,62c44b934a84f8e4a1c9c017,Second,17,21,F,0.09012784100000004
66,41,D_exp1,0.876302083,0.918181818,39.66,164,130,62c44b934a84f8e4a1c9c017,Second,17,21,F,0.041879734999999974
66,1,B_exp1,0.290364583,0.2,98.47,2,131,62c44b934a84f8e4a1c9c017,Second,17,21,F,-0.090364583
66,28,A_exp1,0.578125,0.684772727,73.36,109,132,62c44b934a84f8e4a1c9c017,Second,17,21,F,0.10664772700000003
66,14,D_exp1,0.53125,0.433409091,91.2,56,133,62c44b934a84f8e4a1c9c017,Second,17,21,F,-0.09784090899999998
66,45,B_exp1,0.994791667,0.99,14.13,178,134,62c44b934a84f8e4a1c9c017,Second,17,21,F,-0.0047916669999999995
66,6,B_exp1,0.450520833,0.289772727,96.58,22,135,62c44b934a84f8e4a1c9c017,Second,17,21,F,-0.160748106
66,25,D_exp1,0.52734375,0.630909091,78.2,100,136,62c44b934a84f8e4a1c9c017,Second,17,21,F,0.10356534100000003
66,7,C_exp1,0.421875,0.307727273,96.03,27,137,62c44b934a84f8e4a1c9c017,Second,17,21,F,-0.11414772699999998
66,1,A_exp1,0.19921875,0.2,98.47,1,138,62c44b934a84f8e4a1c9c017,Second,17,21,F,7.812500000000111e-4
66,30,A_exp1,0.442708333,0.720681818,69.76,117,139,62c44b934a84f8e4a1c9c017,Second,17,21,F,0.27797348499999996
66,27,D_exp1,0.651041667,0.666818182,75.05,108,140,62c44b934a84f8e4a1c9c017,Second,17,21,F,0.01577651499999999
66,32,D_exp1,0.533854167,0.756590909,65.73,128,141,62c44b934a84f8e4a1c9c017,Second,17,21,F,0.22273674200000004
66,38,C_exp1,0.744791667,0.864318182,50.47,151,142,62c44b934a84f8e4a1c9c017,Second,17,21,F,0.119526515
66,20,A_exp1,0.34375,0.541136364,85.04,77,143,62c44b934a84f8e4a1c9c017,Second,17,21,F,0.19738636399999998
66,8,C_exp1,0.354166667,0.325681818,95.52,31,144,62c44b934a84f8e4a1c9c017,Second,17,21,F,-0.02848484899999998
66,20,B_exp1,0.447916667,0.541136364,85.04,78,145,62c44b934a84f8e4a1c9c017,Second,17,21,F,0.09321969699999999
66,44,A_exp1,0.959635417,0.972045455,23.65,173,147,62c44b934a84f8e4a1c9c017,Second,17,21,F,0.012410037999999957
66,2,A_exp1,0.345052083,0.217954545,98.2,5,148,62c44b934a84f8e4a1c9c017,Second,17,21,F,-0.127097538
66,22,A_exp1,0.265625,0.577045455,82.45,85,149,62c44b934a84f8e4a1c9c017,Second,17,21,F,0.31142045500000004
66,29,C_exp1,0.549479167,0.702727273,71.6,115,150,62c44b934a84f8e4a1c9c017,Second,17,21,F,0.15324810600000005
66,13,C_exp1,0.6015625,0.415454545,91.98,51,151,62c44b934a84f8e4a1c9c017,Second,17,21,F,-0.186107955
66,27,B_exp1,0.66015625,0.666818182,75.05,106,152,62c44b934a84f8e4a1c9c017,Second,17,21,F,0.0066619319999999815
66,8,A_exp1,0.376302083,0.325681818,95.52,29,153,62c44b934a84f8e4a1c9c017,Second,17,21,F,-0.050620265
66,3,A_exp1,0.286458333,0.235909091,97.87,9,154,62c44b934a84f8e4a1c9c017,Second,17,21,F,-0.05054924200000002
66,41,C_exp1,0.8046875,0.918181818,39.66,163,155,62c44b934a84f8e4a1c9c017,Second,17,21,F,0.11349431799999998
66,20,C_exp1,0.520833333,0.541136364,85.04,79,156,62c44b934a84f8e4a1c9c017,Second,17,21,F,0.02030303099999997
66,14,B_exp1,0.369791667,0.433409091,91.2,54,157,62c44b934a84f8e4a1c9c017,Second,17,21,F,0.06361742400000003
66,36,C_exp1,0.7109375,0.828409091,56.22,143,158,62c44b934a84f8e4a1c9c017,Second,17,21,F,0.11747159100000004
66,3,B_exp1,0.45703125,0.235909091,97.87,10,159,62c44b934a84f8e4a1c9c017,Second,17,21,F,-0.221122159
66,39,D_exp1,0.872395833,0.882272727,47.19,156,160,62c44b934a84f8e4a1c9c017,Second,17,21,F,0.009876894000000025
66,40,B_exp1,0.705729167,0.900227273,43.56,158,161,62c44b934a84f8e4a1c9c017,Second,17,21,F,0.19449810600000006
66,31,D_exp1,0.739583333,0.738636364,67.86,124,163,62c44b934a84f8e4a1c9c017,Second,17,21,F,-9.469690000000197e-4
66,29,B_exp1,0.611979167,0.702727273,71.6,114,164,62c44b934a84f8e4a1c9c017,Second,17,21,F,0.09074810600000005
66,17,B_exp1,0.778645833,0.487272727,88.33,66,165,62c44b934a84f8e4a1c9c017,Second,17,21,F,-0.291373106
66,4,A_exp1,0.403645833,0.253863636,97.45,13,166,62c44b934a84f8e4a1c9c017,Second,17,21,F,-0.149782197
66,43,C_exp1,0.9609375,0.954090909,30.04,171,168,62c44b934a84f8e4a1c9c017,Second,17,21,F,-0.0068465909999999575
66,24,C_exp1,0.502604167,0.612954545,79.66,95,169,62c44b934a84f8e4a1c9c017,Second,17,21,F,0.11035037800000003
66,11,C_exp1,0.365885417,0.379545455,93.55,43,170,62c44b934a84f8e4a1c9c017,Second,17,21,F,0.013660037999999985
66,30,B_exp1,0.58203125,0.720681818,69.76,118,171,62c44b934a84f8e4a1c9c017,Second,17,21,F,0.13865056799999997
66,20,D_exp1,0.635416667,0.541136364,85.04,80,172,62c44b934a84f8e4a1c9c017,Second,17,21,F,-0.09428030300000001
66,5,C_exp1,0.360677083,0.271818182,96.99,19,173,62c44b934a84f8e4a1c9c017,Second,17,21,F,-0.08885890099999999
66,26,C_exp1,0.227864583,0.648863636,76.62,103,174,62c44b934a84f8e4a1c9c017,Second,17,21,F,0.42099905299999996
66,23,D_exp1,0.1953125,0.595,81.13,92,175,62c44b934a84f8e4a1c9c017,Second,17,21,F,0.3996875
66,17,C_exp1,0.42578125,0.487272727,88.33,67,176,62c44b934a84f8e4a1c9c017,Second,17,21,F,0.06149147700000002
66,13,D_exp1,0.5078125,0.415454545,91.98,52,177,62c44b934a84f8e4a1c9c017,Second,17,21,F,-0.09235795499999999
66,17,D_exp1,0.470052083,0.487272727,88.33,68,178,62c44b934a84f8e4a1c9c017,Second,17,21,F,0.017220644000000007
66,21,B_exp1,0.602864583,0.559090909,83.77,82,179,62c44b934a84f8e4a1c9c017,Second,17,21,F,-0.043773673999999985
66,21,A_exp1,0.451822917,0.559090909,83.77,81,180,62c44b934a84f8e4a1c9c017,Second,17,21,F,0.10726799200000003
66,8,D_exp1,0.397135417,0.325681818,95.52,32,181,62c44b934a84f8e4a1c9c017,Second,17,21,F,-0.07145359899999998
66,18,D_exp1,0.602864583,0.505227273,87.36,72,182,62c44b934a84f8e4a1c9c017,Second,17,21,F,-0.09763730999999998
66,23,A_exp1,0.470052083,0.595,81.13,89,183,62c44b934a84f8e4a1c9c017,Second,17,21,F,0.12494791699999996
66,37,B_exp1,0.739583333,0.846363636,53.4,146,184,62c44b934a84f8e4a1c9c017,Second,17,21,F,0.10678030299999997
66,13,B_exp1,0.401041667,0.415454545,91.98,50,185,62c44b934a84f8e4a1c9c017,Second,17,21,F,0.014412878000000018
42,5,B_exp1,0.073216146,0.271818182,96.99,18,0,62c44ae9dc576807fe581d4a,First,25,29,M,0.19860203600000004
42,25,B_exp1,0.108897569,0.630909091,78.2,98,1,62c44ae9dc576807fe581d4a,First,25,29,M,0.522011522
42,1,A_exp1,0.120868056,0.2,98.47,1,2,62c44ae9dc576807fe581d4a,First,25,29,M,0.07913194400000001
42,3,C_exp1,0.128394097,0.235909091,97.87,11,3,62c44ae9dc576807fe581d4a,First,25,29,M,0.10751499399999997
42,27,A_exp1,0.262243924,0.666818182,75.05,105,4,62c44ae9dc576807fe581d4a,First,25,29,M,0.40457425799999996
42,8,C_exp1,0.283064236,0.325681818,95.52,31,5,62c44ae9dc576807fe581d4a,First,25,29,M,0.04261758199999999
42,3,A_exp1,0.331909722,0.235909091,97.87,9,6,62c44ae9dc576807fe581d4a,First,25,29,M,-0.09600063100000003
42,30,B_exp1,0.331909722,0.720681818,69.76,118,7,62c44ae9dc576807fe581d4a,First,25,29,M,0.38877209599999996
42,41,A_exp1,NA,0.918181818,39.66,161,8,62c44ae9dc576807fe581d4a,First,25,29,M,NA
42,17,D_exp1,0.335125868,0.487272727,88.33,68,9,62c44ae9dc576807fe581d4a,First,25,29,M,0.15214685900000002
42,13,B_exp1,0.186132813,0.415454545,91.98,50,10,62c44ae9dc576807fe581d4a,First,25,29,M,0.229321732
42,32,D_exp1,0.210729167,0.756590909,65.73,128,11,62c44ae9dc576807fe581d4a,First,25,29,M,0.545861742
42,29,B_exp1,0.177000868,0.702727273,71.6,114,12,62c44ae9dc576807fe581d4a,First,25,29,M,0.525726405
42,31,C_exp1,0.273632813,0.738636364,67.86,123,13,62c44ae9dc576807fe581d4a,First,25,29,M,0.465003551
42,33,C_exp1,0.220351563,0.774545455,63.57,131,14,62c44ae9dc576807fe581d4a,First,25,29,M,0.554193892
42,21,B_exp1,0.352907986,0.559090909,83.77,82,16,62c44ae9dc576807fe581d4a,First,25,29,M,0.20618292300000002
42,1,B_exp1,0.235707465,0.2,98.47,2,17,62c44ae9dc576807fe581d4a,First,25,29,M,-0.035707464999999994
42,14,C_exp1,0.343190104,0.433409091,91.2,55,18,62c44ae9dc576807fe581d4a,First,25,29,M,0.09021898700000003
42,44,C_exp1,0.929800347,0.972045455,23.65,175,19,62c44ae9dc576807fe581d4a,First,25,29,M,0.04224510799999992
42,22,D_exp1,0.512226563,0.577045455,82.45,88,20,62c44ae9dc576807fe581d4a,First,25,29,M,0.06481889200000002
42,41,C_exp1,0.775881076,0.918181818,39.66,163,21,62c44ae9dc576807fe581d4a,First,25,29,M,0.14230074199999998
42,14,B_exp1,0.432092014,0.433409091,91.2,54,22,62c44ae9dc576807fe581d4a,First,25,29,M,0.0013170769999999998
42,6,B_exp1,0.168641493,0.289772727,96.58,22,23,62c44ae9dc576807fe581d4a,First,25,29,M,0.121131234
42,39,B_exp1,0.768637153,0.882272727,47.19,154,24,62c44ae9dc576807fe581d4a,First,25,29,M,0.11363557400000002
42,33,A_exp1,0.732990451,0.774545455,63.57,129,25,62c44ae9dc576807fe581d4a,First,25,29,M,0.041555004000000006
42,43,B_exp1,0.960177951,0.954090909,30.04,170,26,62c44ae9dc576807fe581d4a,First,25,29,M,-0.006087041999999987
42,31,A_exp1,0.21562066,0.738636364,67.86,121,27,62c44ae9dc576807fe581d4a,First,25,29,M,0.523015704
42,44,A_exp1,0.872330729,0.972045455,23.65,173,28,62c44ae9dc576807fe581d4a,First,25,29,M,0.09971472599999998
42,36,C_exp1,0.742408854,0.828409091,56.22,143,29,62c44ae9dc576807fe581d4a,First,25,29,M,0.08600023700000003
42,35,C_exp1,0.803650174,0.810454545,58.87,139,30,62c44ae9dc576807fe581d4a,First,25,29,M,0.006804370999999976
42,21,A_exp1,0.368615451,0.559090909,83.77,81,31,62c44ae9dc576807fe581d4a,First,25,29,M,0.19047545800000004
42,42,C_exp1,0.910842014,0.936136364,35.25,167,32,62c44ae9dc576807fe581d4a,First,25,29,M,0.02529435000000002
42,9,B_exp1,0.039001736,0.343636364,94.9,34,33,62c44ae9dc576807fe581d4a,First,25,29,M,0.304634628
42,14,D_exp1,0.256462674,0.433409091,91.2,56,34,62c44ae9dc576807fe581d4a,First,25,29,M,0.17694641700000002
42,21,D_exp1,0.220664063,0.559090909,83.77,84,35,62c44ae9dc576807fe581d4a,First,25,29,M,0.33842684600000006
42,35,D_exp1,0.663515625,0.810454545,58.87,140,36,62c44ae9dc576807fe581d4a,First,25,29,M,0.14693891999999997
42,12,D_exp1,0.339813368,0.3975,92.82,48,37,62c44ae9dc576807fe581d4a,First,25,29,M,0.057686632000000015
42,2,C_exp1,0.252256944,0.217954545,98.2,7,38,62c44ae9dc576807fe581d4a,First,25,29,M,-0.03430239899999998
42,13,A_exp1,0.232239583,0.415454545,91.98,49,39,62c44ae9dc576807fe581d4a,First,25,29,M,0.183214962
42,7,A_exp1,0.197838542,0.307727273,96.03,25,40,62c44ae9dc576807fe581d4a,First,25,29,M,0.10988873100000002
42,39,D_exp1,0.752756076,0.882272727,47.19,156,41,62c44ae9dc576807fe581d4a,First,25,29,M,0.12951665099999998
42,19,A_exp1,0.173897569,0.523181818,86.21,73,42,62c44ae9dc576807fe581d4a,First,25,29,M,0.349284249
42,12,B_exp1,0.178702257,0.3975,92.82,46,43,62c44ae9dc576807fe581d4a,First,25,29,M,0.21879774300000002
42,20,A_exp1,0.215494792,0.541136364,85.04,77,44,62c44ae9dc576807fe581d4a,First,25,29,M,0.325641572
42,44,B_exp1,0.870381944,0.972045455,23.65,174,45,62c44ae9dc576807fe581d4a,First,25,29,M,0.10166351099999993
42,36,A_exp1,0.815455729,0.828409091,56.22,141,46,62c44ae9dc576807fe581d4a,First,25,29,M,0.01295336200000008
42,40,B_exp1,0.77733941,0.900227273,43.56,158,47,62c44ae9dc576807fe581d4a,First,25,29,M,0.1228878630000001
42,22,C_exp1,0.480251736,0.577045455,82.45,87,48,62c44ae9dc576807fe581d4a,First,25,29,M,0.09679371900000006
42,5,D_exp1,0.254861111,0.271818182,96.99,20,49,62c44ae9dc576807fe581d4a,First,25,29,M,0.016957071000000046
42,40,D_exp1,0.727074653,0.900227273,43.56,160,50,62c44ae9dc576807fe581d4a,First,25,29,M,0.1731526200000001
42,34,A_exp1,0.591184896,0.7925,61.29,133,51,62c44ae9dc576807fe581d4a,First,25,29,M,0.20131510399999997
42,41,D_exp1,0.734861111,0.918181818,39.66,164,53,62c44ae9dc576807fe581d4a,First,25,29,M,0.18332070700000003
42,19,D_exp1,0.50093316,0.523181818,86.21,76,56,62c44ae9dc576807fe581d4a,First,25,29,M,0.022248657999999977
42,22,B_exp1,0.367265625,0.577045455,82.45,86,57,62c44ae9dc576807fe581d4a,First,25,29,M,0.20977983000000006
42,10,D_exp1,0.157434896,0.361590909,94.23,40,59,62c44ae9dc576807fe581d4a,First,25,29,M,0.20415601300000003
42,11,C_exp1,0.253736979,0.379545455,93.55,43,60,62c44ae9dc576807fe581d4a,First,25,29,M,0.125808476
42,10,A_exp1,0.365321181,0.361590909,94.23,37,61,62c44ae9dc576807fe581d4a,First,25,29,M,-0.003730271999999979
42,26,C_exp1,0.394461806,0.648863636,76.62,103,62,62c44ae9dc576807fe581d4a,First,25,29,M,0.25440182999999994
42,40,A_exp1,0.742990451,0.900227273,43.56,157,63,62c44ae9dc576807fe581d4a,First,25,29,M,0.157236822
42,29,C_exp1,0.625329861,0.702727273,71.6,115,64,62c44ae9dc576807fe581d4a,First,25,29,M,0.07739741200000005
42,16,C_exp1,0.297860243,0.469318182,89.4,63,65,62c44ae9dc576807fe581d4a,First,25,29,M,0.17145793899999995
42,33,D_exp1,0.650598958,0.774545455,63.57,132,66,62c44ae9dc576807fe581d4a,First,25,29,M,0.12394649700000004
42,4,A_exp1,0.26390625,0.253863636,97.45,13,67,62c44ae9dc576807fe581d4a,First,25,29,M,-0.010042614000000005
42,39,C_exp1,0.698615451,0.882272727,47.19,155,68,62c44ae9dc576807fe581d4a,First,25,29,M,0.18365727600000004
42,6,C_exp1,0.273450521,0.289772727,96.58,23,69,62c44ae9dc576807fe581d4a,First,25,29,M,0.016322206000000006
42,35,A_exp1,0.619852431,0.810454545,58.87,137,70,62c44ae9dc576807fe581d4a,First,25,29,M,0.19060211400000004
42,28,A_exp1,0.520117188,0.684772727,73.36,109,71,62c44ae9dc576807fe581d4a,First,25,29,M,0.16465553900000007
42,23,D_exp1,0.58343316,0.595,81.13,92,72,62c44ae9dc576807fe581d4a,First,25,29,M,0.011566839999999967
42,31,D_exp1,0.626467014,0.738636364,67.86,124,73,62c44ae9dc576807fe581d4a,First,25,29,M,0.11216934999999995
42,2,B_exp1,0.307022569,0.217954545,98.2,6,74,62c44ae9dc576807fe581d4a,First,25,29,M,-0.08906802400000002
42,20,C_exp1,0.57905816,0.541136364,85.04,79,76,62c44ae9dc576807fe581d4a,First,25,29,M,-0.03792179600000001
42,16,D_exp1,0.333394097,0.469318182,89.4,64,77,62c44ae9dc576807fe581d4a,First,25,29,M,0.13592408499999997
42,25,A_exp1,0.388138021,0.630909091,78.2,97,78,62c44ae9dc576807fe581d4a,First,25,29,M,0.24277107000000003
42,8,A_exp1,0.372730035,0.325681818,95.52,29,79,62c44ae9dc576807fe581d4a,First,25,29,M,-0.047048217
42,12,C_exp1,0.394019097,0.3975,92.82,47,80,62c44ae9dc576807fe581d4a,First,25,29,M,0.003480903000000035
42,43,C_exp1,0.875243056,0.954090909,30.04,171,81,62c44ae9dc576807fe581d4a,First,25,29,M,0.07884785300000008
42,12,A_exp1,0.190377604,0.3975,92.82,45,82,62c44ae9dc576807fe581d4a,First,25,29,M,0.20712239600000001
42,41,B_exp1,0.769435764,0.918181818,39.66,162,83,62c44ae9dc576807fe581d4a,First,25,29,M,0.14874605399999996
42,43,D_exp1,0.884427083,0.954090909,30.04,172,84,62c44ae9dc576807fe581d4a,First,25,29,M,0.0696638260000001
42,26,B_exp1,0.157855903,0.648863636,76.62,102,85,62c44ae9dc576807fe581d4a,First,25,29,M,0.491007733
42,24,C_exp1,0.172738715,0.612954545,79.66,95,86,62c44ae9dc576807fe581d4a,First,25,29,M,0.44021583000000003
42,44,D_exp1,0.93249566,0.972045455,23.65,176,87,62c44ae9dc576807fe581d4a,First,25,29,M,0.039549795
42,32,B_exp1,0.718211806,0.756590909,65.73,126,88,62c44ae9dc576807fe581d4a,First,25,29,M,0.038379103000000026
42,33,B_exp1,0.651770833,0.774545455,63.57,130,89,62c44ae9dc576807fe581d4a,First,25,29,M,0.122774622
42,16,B_exp1,0.355611979,0.469318182,89.4,62,90,62c44ae9dc576807fe581d4a,First,25,29,M,0.11370620299999995
42,25,C_exp1,0.298637153,0.630909091,78.2,99,91,62c44ae9dc576807fe581d4a,First,25,29,M,0.33227193800000004
42,11,D_exp1,0.395707465,0.379545455,93.55,44,92,62c44ae9dc576807fe581d4a,First,25,29,M,-0.016162010000000004
42,8,D_exp1,0.383038194,0.325681818,95.52,32,93,62c44ae9dc576807fe581d4a,Second,25,29,M,-0.05735637599999999
42,7,D_exp1,0.401019965,0.307727273,96.03,28,94,62c44ae9dc576807fe581d4a,Second,25,29,M,-0.09329269199999995
42,7,C_exp1,0.446063368,0.307727273,96.03,27,95,62c44ae9dc576807fe581d4a,Second,25,29,M,-0.138336095
42,40,C_exp1,0.884869792,0.900227273,43.56,159,96,62c44ae9dc576807fe581d4a,Second,25,29,M,0.015357481000000006
42,21,C_exp1,0.459466146,0.559090909,83.77,83,97,62c44ae9dc576807fe581d4a,Second,25,29,M,0.099624763
42,43,A_exp1,0.826705729,0.954090909,30.04,169,98,62c44ae9dc576807fe581d4a,Second,25,29,M,0.1273851800000001
42,22,A_exp1,0.391289063,0.577045455,82.45,85,99,62c44ae9dc576807fe581d4a,Second,25,29,M,0.18575639200000005
42,45,C_exp1,0.993632813,0.99,14.13,179,100,62c44ae9dc576807fe581d4a,Second,25,29,M,-0.003632812999999957
42,4,D_exp1,0.319127604,0.253863636,97.45,16,101,62c44ae9dc576807fe581d4a,Second,25,29,M,-0.065263968
42,10,B_exp1,0.224179688,0.361590909,94.23,38,102,62c44ae9dc576807fe581d4a,Second,25,29,M,0.13741122100000003
42,34,C_exp1,0.682391493,0.7925,61.29,135,103,62c44ae9dc576807fe581d4a,Second,25,29,M,0.11010850699999997
42,45,A_exp1,0.956276042,0.99,14.13,177,104,62c44ae9dc576807fe581d4a,Second,25,29,M,0.03372395799999994
42,38,B_exp1,0.795399306,0.864318182,50.47,150,105,62c44ae9dc576807fe581d4a,Second,25,29,M,0.06891887600000002
42,20,D_exp1,0.244136285,0.541136364,85.04,80,106,62c44ae9dc576807fe581d4a,Second,25,29,M,0.297000079
42,10,C_exp1,0.314678819,0.361590909,94.23,39,107,62c44ae9dc576807fe581d4a,Second,25,29,M,0.04691209000000002
42,27,B_exp1,0.36453559,0.666818182,75.05,106,108,62c44ae9dc576807fe581d4a,Second,25,29,M,0.30228259199999996
42,45,B_exp1,0.96702691,0.99,14.13,178,109,62c44ae9dc576807fe581d4a,Second,25,29,M,0.02297309000000003
42,17,C_exp1,NA,0.487272727,88.33,67,110,62c44ae9dc576807fe581d4a,Second,25,29,M,NA
42,18,B_exp1,0.363185764,0.505227273,87.36,70,111,62c44ae9dc576807fe581d4a,Second,25,29,M,0.142041509
42,15,A_exp1,0.269457465,0.451363636,90.29,57,112,62c44ae9dc576807fe581d4a,Second,25,29,M,0.181906171
42,23,A_exp1,0.318337674,0.595,81.13,89,113,62c44ae9dc576807fe581d4a,Second,25,29,M,0.27666232599999996
42,18,D_exp1,0.28391059,0.505227273,87.36,72,114,62c44ae9dc576807fe581d4a,Second,25,29,M,0.22131668300000001
42,6,D_exp1,0.235872396,0.289772727,96.58,24,115,62c44ae9dc576807fe581d4a,Second,25,29,M,0.053900330999999996
42,19,B_exp1,0.256397569,0.523181818,86.21,74,116,62c44ae9dc576807fe581d4a,Second,25,29,M,0.266784249
42,32,C_exp1,0.637078993,0.756590909,65.73,127,117,62c44ae9dc576807fe581d4a,Second,25,29,M,0.119511916
42,11,B_exp1,0.283207465,0.379545455,93.55,42,118,62c44ae9dc576807fe581d4a,Second,25,29,M,0.09633798999999998
42,2,D_exp1,0.212096354,0.217954545,98.2,8,119,62c44ae9dc576807fe581d4a,Second,25,29,M,0.005858191000000013
42,5,C_exp1,0.278424479,0.271818182,96.99,19,120,62c44ae9dc576807fe581d4a,Second,25,29,M,-0.006606296999999983
42,36,B_exp1,0.555889757,0.828409091,56.22,142,121,62c44ae9dc576807fe581d4a,Second,25,29,M,0.27251933400000006
42,15,C_exp1,0.474891493,0.451363636,90.29,59,122,62c44ae9dc576807fe581d4a,Second,25,29,M,-0.023527856999999985
42,26,D_exp1,0.455455729,0.648863636,76.62,104,123,62c44ae9dc576807fe581d4a,Second,25,29,M,0.193407907
42,26,A_exp1,0.470902778,0.648863636,76.62,101,124,62c44ae9dc576807fe581d4a,Second,25,29,M,0.17796085799999994
42,39,A_exp1,0.752573785,0.882272727,47.19,153,125,62c44ae9dc576807fe581d4a,Second,25,29,M,0.12969894199999998
42,11,A_exp1,0.219114583,0.379545455,93.55,41,126,62c44ae9dc576807fe581d4a,Second,25,29,M,0.16043087199999997
42,42,D_exp1,0.75516059,0.936136364,35.25,168,127,62c44ae9dc576807fe581d4a,Second,25,29,M,0.18097577399999998
42,9,C_exp1,0.211744792,0.343636364,94.9,35,128,62c44ae9dc576807fe581d4a,Second,25,29,M,0.13189157200000004
42,18,C_exp1,0.27969184,0.505227273,87.36,71,129,62c44ae9dc576807fe581d4a,Second,25,29,M,0.225535433
42,17,A_exp1,0.385060764,0.487272727,88.33,65,130,62c44ae9dc576807fe581d4a,Second,25,29,M,0.10221196300000002
42,19,C_exp1,0.324327257,0.523181818,86.21,75,131,62c44ae9dc576807fe581d4a,Second,25,29,M,0.19885456099999999
42,28,D_exp1,0.490499132,0.684772727,73.36,112,132,62c44ae9dc576807fe581d4a,Second,25,29,M,0.19427359500000002
42,9,A_exp1,0.377595486,0.343636364,94.9,33,133,62c44ae9dc576807fe581d4a,Second,25,29,M,-0.03395912199999995
42,2,A_exp1,0.343615451,0.217954545,98.2,5,134,62c44ae9dc576807fe581d4a,Second,25,29,M,-0.12566090600000002
42,14,A_exp1,0.343615451,0.433409091,91.2,53,135,62c44ae9dc576807fe581d4a,Second,25,29,M,0.08979364000000001
42,38,C_exp1,0.871983507,0.864318182,50.47,151,136,62c44ae9dc576807fe581d4a,Second,25,29,M,-0.007665325000000056
42,37,C_exp1,0.80046441,0.846363636,53.4,147,137,62c44ae9dc576807fe581d4a,Second,25,29,M,0.04589922599999996
42,6,A_exp1,0.303172743,0.289772727,96.58,21,138,62c44ae9dc576807fe581d4a,Second,25,29,M,-0.013400016000000015
42,8,B_exp1,0.118424479,0.325681818,95.52,30,139,62c44ae9dc576807fe581d4a,Second,25,29,M,0.207257339
42,34,B_exp1,0.277578125,0.7925,61.29,134,140,62c44ae9dc576807fe581d4a,Second,25,29,M,0.514921875
42,42,A_exp1,0.734440104,0.936136364,35.25,165,141,62c44ae9dc576807fe581d4a,Second,25,29,M,0.20169625999999996
42,20,B_exp1,0.285677083,0.541136364,85.04,78,142,62c44ae9dc576807fe581d4a,Second,25,29,M,0.255459281
42,45,D_exp1,0.967157118,0.99,14.13,180,143,62c44ae9dc576807fe581d4a,Second,25,29,M,0.022842881999999953
42,28,C_exp1,0.793376736,0.684772727,73.36,111,144,62c44ae9dc576807fe581d4a,Second,25,29,M,-0.108604009
42,30,C_exp1,0.665828993,0.720681818,69.76,119,145,62c44ae9dc576807fe581d4a,Second,25,29,M,0.054852824999999994
42,4,B_exp1,0.419969618,0.253863636,97.45,14,146,62c44ae9dc576807fe581d4a,Second,25,29,M,-0.16610598199999999
42,13,C_exp1,0.359548611,0.415454545,91.98,51,147,62c44ae9dc576807fe581d4a,Second,25,29,M,0.05590593399999999
42,24,A_exp1,0.340559896,0.612954545,79.66,93,148,62c44ae9dc576807fe581d4a,Second,25,29,M,0.27239464900000004
42,29,A_exp1,0.342304688,0.702727273,71.6,113,149,62c44ae9dc576807fe581d4a,Second,25,29,M,0.360422585
42,29,D_exp1,0.38187934,0.702727273,71.6,116,150,62c44ae9dc576807fe581d4a,Second,25,29,M,0.32084793300000003
42,15,B_exp1,0.387599826,0.451363636,90.29,58,151,62c44ae9dc576807fe581d4a,Second,25,29,M,0.06376381000000003
42,37,A_exp1,0.722855903,0.846363636,53.4,145,152,62c44ae9dc576807fe581d4a,Second,25,29,M,0.12350773299999995
42,18,A_exp1,0.486184896,0.505227273,87.36,69,153,62c44ae9dc576807fe581d4a,Second,25,29,M,0.019042377000000055
42,38,A_exp1,0.778368056,0.864318182,50.47,149,154,62c44ae9dc576807fe581d4a,Second,25,29,M,0.08595012599999996
42,4,C_exp1,0.257630208,0.253863636,97.45,15,155,62c44ae9dc576807fe581d4a,Second,25,29,M,-0.0037665720000000236
42,17,B_exp1,0.309578993,0.487272727,88.33,66,156,62c44ae9dc576807fe581d4a,Second,25,29,M,0.177693734
42,1,D_exp1,0.279431424,0.2,98.47,4,157,62c44ae9dc576807fe581d4a,Second,25,29,M,-0.07943142399999997
42,36,D_exp1,0.768654514,0.828409091,56.22,144,158,62c44ae9dc576807fe581d4a,Second,25,29,M,0.059754577000000086
42,3,B_exp1,0.255698785,0.235909091,97.87,10,159,62c44ae9dc576807fe581d4a,Second,25,29,M,-0.019789693999999997
42,32,A_exp1,0.73296875,0.756590909,65.73,125,160,62c44ae9dc576807fe581d4a,Second,25,29,M,0.023622159000000087
42,24,D_exp1,0.599283854,0.612954545,79.66,96,161,62c44ae9dc576807fe581d4a,Second,25,29,M,0.013670691000000068
42,27,C_exp1,0.542144097,0.666818182,75.05,107,162,62c44ae9dc576807fe581d4a,Second,25,29,M,0.12467408499999999
42,34,D_exp1,0.652131076,0.7925,61.29,136,163,62c44ae9dc576807fe581d4a,Second,25,29,M,0.140368924
42,31,B_exp1,0.647669271,0.738636364,67.86,122,164,62c44ae9dc576807fe581d4a,Second,25,29,M,0.09096709299999994
42,1,C_exp1,0.300850694,0.2,98.47,3,165,62c44ae9dc576807fe581d4a,Second,25,29,M,-0.10085069399999996
42,7,B_exp1,0.321124132,0.307727273,96.03,26,166,62c44ae9dc576807fe581d4a,Second,25,29,M,-0.013396858999999983
42,30,A_exp1,0.530247396,0.720681818,69.76,117,167,62c44ae9dc576807fe581d4a,Second,25,29,M,0.19043442199999994
42,37,B_exp1,0.750985243,0.846363636,53.4,146,168,62c44ae9dc576807fe581d4a,Second,25,29,M,0.09537839299999995
42,3,D_exp1,0.147534722,0.235909091,97.87,12,169,62c44ae9dc576807fe581d4a,Second,25,29,M,0.08837436899999998
42,35,B_exp1,0.697947049,0.810454545,58.87,138,170,62c44ae9dc576807fe581d4a,Second,25,29,M,0.11250749599999998
42,15,D_exp1,0.293125,0.451363636,90.29,60,171,62c44ae9dc576807fe581d4a,Second,25,29,M,0.158238636
42,24,B_exp1,0.394635417,0.612954545,79.66,94,172,62c44ae9dc576807fe581d4a,Second,25,29,M,0.21831912800000003
42,16,A_exp1,0.394635417,0.469318182,89.4,61,173,62c44ae9dc576807fe581d4a,Second,25,29,M,0.07468276499999998
42,5,A_exp1,0.286983507,0.271818182,96.99,17,174,62c44ae9dc576807fe581d4a,Second,25,29,M,-0.015165325000000007
42,27,D_exp1,0.427447917,0.666818182,75.05,108,175,62c44ae9dc576807fe581d4a,Second,25,29,M,0.23937026499999997
42,38,D_exp1,0.742825521,0.864318182,50.47,152,176,62c44ae9dc576807fe581d4a,Second,25,29,M,0.121492661
42,25,D_exp1,0.45812934,0.630909091,78.2,100,177,62c44ae9dc576807fe581d4a,Second,25,29,M,0.17277975100000004
42,23,C_exp1,0.431197917,0.595,81.13,91,178,62c44ae9dc576807fe581d4a,Second,25,29,M,0.163802083
42,13,D_exp1,0.332886285,0.415454545,91.98,52,179,62c44ae9dc576807fe581d4a,Second,25,29,M,0.08256826
42,30,D_exp1,0.543980035,0.720681818,69.76,120,180,62c44ae9dc576807fe581d4a,Second,25,29,M,0.17670178299999995
42,23,B_exp1,0.395668403,0.595,81.13,90,181,62c44ae9dc576807fe581d4a,Second,25,29,M,0.19933159699999997
42,28,B_exp1,0.543763021,0.684772727,73.36,110,182,62c44ae9dc576807fe581d4a,Second,25,29,M,0.14100970600000007
42,42,B_exp1,0.772868924,0.936136364,35.25,166,183,62c44ae9dc576807fe581d4a,Second,25,29,M,0.16326744000000004
42,9,D_exp1,0.416193576,0.343636364,94.9,36,184,62c44ae9dc576807fe581d4a,Second,25,29,M,-0.07255721199999998
42,37,D_exp1,0.671527778,0.846363636,53.4,148,185,62c44ae9dc576807fe581d4a,Second,25,29,M,0.174835858
93,35,A_exp1,0.561197917,0.810454545,58.87,137,0,62c44b6534711fc0753b496d,First,15,20,F,0.24925662800000004
93,10,C_exp1,0.278645833,0.361590909,94.23,39,1,62c44b6534711fc0753b496d,First,15,20,F,0.082945076
93,11,C_exp1,0.365885417,0.379545455,93.55,43,2,62c44b6534711fc0753b496d,First,15,20,F,0.013660037999999985
93,42,D_exp1,0.875,0.936136364,35.25,168,3,62c44b6534711fc0753b496d,First,15,20,F,0.061136364
93,41,B_exp1,0.829427083,0.918181818,39.66,162,4,62c44b6534711fc0753b496d,First,15,20,F,0.08875473499999997
93,13,D_exp1,0.229166667,0.415454545,91.98,52,5,62c44b6534711fc0753b496d,First,15,20,F,0.18628787800000002
93,29,D_exp1,0.2734375,0.702727273,71.6,116,6,62c44b6534711fc0753b496d,First,15,20,F,0.42928977300000004
93,7,B_exp1,0.266927083,0.307727273,96.03,26,7,62c44b6534711fc0753b496d,First,15,20,F,0.040800190000000014
93,39,B_exp1,0.80859375,0.882272727,47.19,154,8,62c44b6534711fc0753b496d,First,15,20,F,0.07367897700000003
93,33,A_exp1,0.57421875,0.774545455,63.57,129,9,62c44b6534711fc0753b496d,First,15,20,F,0.20032670500000005
93,21,A_exp1,0.436197917,0.559090909,83.77,81,10,62c44b6534711fc0753b496d,First,15,20,F,0.12289299200000003
93,22,D_exp1,0.375,0.577045455,82.45,88,11,62c44b6534711fc0753b496d,First,15,20,F,0.20204545500000004
93,23,B_exp1,0.375,0.595,81.13,90,12,62c44b6534711fc0753b496d,First,15,20,F,0.21999999999999997
93,28,B_exp1,0.3828125,0.684772727,73.36,110,13,62c44b6534711fc0753b496d,First,15,20,F,0.301960227
93,21,B_exp1,0.393229167,0.559090909,83.77,82,14,62c44b6534711fc0753b496d,First,15,20,F,0.16586174200000003
93,32,B_exp1,0.393229167,0.756590909,65.73,126,15,62c44b6534711fc0753b496d,First,15,20,F,0.36336174200000004
93,8,D_exp1,0.31640625,0.325681818,95.52,32,16,62c44b6534711fc0753b496d,First,15,20,F,0.009275568000000012
93,13,B_exp1,0.286458333,0.415454545,91.98,50,17,62c44b6534711fc0753b496d,First,15,20,F,0.128996212
93,45,B_exp1,0.975260417,0.99,14.13,178,18,62c44b6534711fc0753b496d,First,15,20,F,0.014739583
93,44,B_exp1,0.904947917,0.972045455,23.65,174,19,62c44b6534711fc0753b496d,First,15,20,F,0.06709753799999996
93,44,A_exp1,0.884114583,0.972045455,23.65,173,20,62c44b6534711fc0753b496d,First,15,20,F,0.08793087199999994
93,38,A_exp1,0.697916667,0.864318182,50.47,149,21,62c44b6534711fc0753b496d,First,15,20,F,0.166401515
93,9,D_exp1,0.34765625,0.343636364,94.9,36,22,62c44b6534711fc0753b496d,First,15,20,F,-0.0040198859999999725
93,28,D_exp1,0.3515625,0.684772727,73.36,112,23,62c44b6534711fc0753b496d,First,15,20,F,0.333210227
93,12,B_exp1,0.29296875,0.3975,92.82,46,24,62c44b6534711fc0753b496d,First,15,20,F,0.10453125000000002
93,6,A_exp1,0.29296875,0.289772727,96.58,21,25,62c44b6534711fc0753b496d,First,15,20,F,-0.0031960229999999923
93,42,B_exp1,0.73046875,0.936136364,35.25,166,26,62c44b6534711fc0753b496d,First,15,20,F,0.205667614
93,40,A_exp1,0.815104167,0.900227273,43.56,157,27,62c44b6534711fc0753b496d,First,15,20,F,0.08512310600000006
93,24,D_exp1,0.46875,0.612954545,79.66,96,28,62c44b6534711fc0753b496d,First,15,20,F,0.14420454500000002
93,23,D_exp1,0.34765625,0.595,81.13,92,29,62c44b6534711fc0753b496d,First,15,20,F,0.24734374999999997
93,1,B_exp1,0.326822917,0.2,98.47,2,31,62c44b6534711fc0753b496d,First,15,20,F,-0.12682291699999998
93,2,C_exp1,0.326822917,0.217954545,98.2,7,32,62c44b6534711fc0753b496d,First,15,20,F,-0.10886837199999999
93,2,D_exp1,0.30859375,0.217954545,98.2,8,33,62c44b6534711fc0753b496d,First,15,20,F,-0.090639205
93,40,C_exp1,0.708333333,0.900227273,43.56,159,34,62c44b6534711fc0753b496d,First,15,20,F,0.19189394000000004
93,25,C_exp1,0.53515625,0.630909091,78.2,99,35,62c44b6534711fc0753b496d,First,15,20,F,0.09575284100000003
93,2,A_exp1,0.265625,0.217954545,98.2,5,36,62c44b6534711fc0753b496d,First,15,20,F,-0.047670455
93,12,A_exp1,0.265625,0.3975,92.82,45,37,62c44b6534711fc0753b496d,First,15,20,F,0.13187500000000002
93,39,C_exp1,0.657552083,0.882272727,47.19,155,38,62c44b6534711fc0753b496d,First,15,20,F,0.22472064400000002
93,30,C_exp1,0.44140625,0.720681818,69.76,119,39,62c44b6534711fc0753b496d,First,15,20,F,0.279275568
93,22,B_exp1,0.446614583,0.577045455,82.45,86,40,62c44b6534711fc0753b496d,First,15,20,F,0.13043087200000003
