instructions,q1_slider_DC_2.response,consent_loop.thisN,q3_slider_DC.response,expName,warning.started,pre_beliefs.stopped,slider_emotion.response,study_id,key_resp_6.keys,__session,__participant,images_typical,__experimentName,final.started,intro.started,final.stopped,debrief.started,key_resp_6.rt,key_resp_4.rt,trials.thisN,trials.thisTrialN,pre_beliefs.started,practice.started,consent.stopped,trial_w_slider.started,consent.started,key_resp_exp.rt,begin_experiment.stopped,literacy.stopped,literacy.started,q2_slider_DC.response,q4_slider.response,instructions.started,ready_to_go.started,key_resp_exp_post.keys,consent_loop.thisTrialN,consent_item,slide_counter,date,trials.thisRepN,unique_item_no_T,practice_key_resp.rt,slider_emotion.rt,q3_slider.response,slider_belief_post.response,OS,gender_slider.response,plots_with_labels_T,trials.thisIndex,demographics.started,q4_slider_DC.response,q2_slider_DC_2.response,consent_key.keys,key_resp_4.duration,consent_key.rt,DC_page_2.stopped,q1_slider_DC_3.response,DC_page_3.stopped,instructions_loop.thisIndex,instructions_loop.thisRepN,slider.response,consent_key.duration,key_resp_4.keys,debrief.stopped,DC_page_1.stopped,colour,q2_slider.response,consent_loop.thisIndex,post_beliefs.started,practice.stopped,instructions_loop.ran,trials.ran,instructions_loop.thisN,post_beliefs.stopped,q2_slider_DC_3.response,trial_w_slider.stopped,DC_page_3.started,begin_experiment.started,DC_page_2.started,slider_belief.rt,DC_page_1.started,key_resp_exp.keys,q4_slider_DC_2.response,slider_belief.response,warning.stopped,ready_to_go.stopped,instructions.stopped,instructions_loop.thisTrialN,q3_slider_DC_2.response,q1_slider_DC.response,q3_slider_DC_3.response,psychopyVersion,consent_loop.thisRepN,consent_count,q4_slider_DC_3.response,age_textbox.text,instructions_text,q5_slider.response,key_resp_exp_post.rt,__datetime,frameRate,practice_key_resp.keys,practice_slider_2.rt,slider.rt,q1_slider.response,demographics.stopped,practice_slider_2.response,consent_loop.ran,intro.stopped,slider_belief_post.rt,session,total_correct,passed,participant
﻿,NA,NA,NA,atypical_scatterplots_main_test_T,NA,NA,NA,66868c1df973f7ededaff065,NA,001,PARTICIPANT,NA,atypical_scatterplots_main_T,NA,1.9999999925701e-4,NA,NA,NA,NA,NA,NA,NA,NA,NA,NA,NA,NA,NA,NA,NA,NA,NA,NA,NA,NA,NA,NA,NA,2024-07-05_11h57.00.002,NA,NA,NA,NA,NA,NA,Win32,NA,NA,NA,NA,NA,NA,NA,NA,NA,NA,NA,NA,NA,NA,NA,NA,NA,NA,NA,NA,NA,NA,NA,NA,NA,NA,NA,NA,NA,NA,NA,NA,NA,NA,NA,NA,NA,NA,NA,NA,NA,NA,NA,NA,NA,2024.1.1,NA,NA,NA,NA,NA,NA,NA,2024-07-05_11h56.51.906,59.52380952380566,NA,NA,NA,NA,NA,NA,NA,4.139900000000374,NA,6687d1694e15829843e4dbb4,2,TRUE,26
﻿,NA,0,NA,atypical_scatterplots_main_test_T,NA,NA,NA,66868c1df973f7ededaff065,NA,001,PARTICIPANT,NA,atypical_scatterplots_main_T,NA,NA,NA,NA,NA,NA,NA,NA,NA,NA,26.77290000000037,NA,23.126,NA,NA,NA,NA,NA,NA,NA,NA,NA,0,"1 of 6
I confirm that I have read the information sheet (Version 6, 01/07/2024) for this study and have had the opportunity to consider the information and ask questions and had these answered satisfactorily.",NA,2024-07-05_11h57.00.002,NA,NA,NA,NA,NA,NA,Win32,NA,NA,NA,NA,NA,NA,y,NA,2.61929999999888,NA,NA,NA,NA,NA,NA,NA,NA,NA,NA,NA,NA,0,NA,NA,NA,NA,NA,NA,NA,NA,NA,NA,NA,NA,NA,NA,NA,NA,NA,NA,NA,NA,NA,NA,NA,2024.1.1,0,1 of 6,NA,NA,NA,NA,NA,2024-07-05_11h56.51.906,59.52380952380566,NA,NA,NA,NA,NA,NA,1,NA,NA,6687d1694e15829843e4dbb4,2,TRUE,26
﻿,NA,1,NA,atypical_scatterplots_main_test_T,NA,NA,NA,66868c1df973f7ededaff065,NA,001,PARTICIPANT,NA,atypical_scatterplots_main_T,NA,NA,NA,NA,NA,NA,NA,NA,NA,NA,33.27290000000037,NA,26.773599999999625,NA,NA,NA,NA,NA,NA,NA,NA,NA,1,"2 of 6
I understand that my participation in the study is voluntary and that I am free to withdraw at any time without giving a reason, and without detriment to myself, by pressing the ‘Escape’ key to quit the experiment, but I will not receive payment for this study. I understand that it will not be possible to remove my data from the project once it has been anonymised and forms part of the data set. 
I agree to take part on this basis. 
",NA,2024-07-05_11h57.00.002,NA,NA,NA,NA,NA,NA,Win32,NA,NA,NA,NA,NA,NA,y,NA,5.467599999999628,NA,NA,NA,NA,NA,NA,NA,NA,NA,NA,NA,NA,1,NA,NA,NA,NA,NA,NA,NA,NA,NA,NA,NA,NA,NA,NA,NA,NA,NA,NA,NA,NA,NA,NA,NA,2024.1.1,0,2 of 6,NA,NA,NA,NA,NA,2024-07-05_11h56.51.906,59.52380952380566,NA,NA,NA,NA,NA,NA,1,NA,NA,6687d1694e15829843e4dbb4,2,TRUE,26
﻿,NA,2,NA,atypical_scatterplots_main_test_T,NA,NA,NA,66868c1df973f7ededaff065,NA,001,PARTICIPANT,NA,atypical_scatterplots_main_T,NA,NA,NA,NA,NA,NA,NA,NA,NA,NA,35.02319999999926,NA,33.27319999999926,NA,NA,NA,NA,NA,NA,NA,NA,NA,2,"3 of 6
I agree that any data collected may be published in anonymous form in academic books, reports, conference presentations or journals. 
I agree to take part on this basis. 
",NA,2024-07-05_11h57.00.002,NA,NA,NA,NA,NA,NA,Win32,NA,NA,NA,NA,NA,NA,y,NA,0.724299999998884,NA,NA,NA,NA,NA,NA,NA,NA,NA,NA,NA,NA,2,NA,NA,NA,NA,NA,NA,NA,NA,NA,NA,NA,NA,NA,NA,NA,NA,NA,NA,NA,NA,NA,NA,NA,2024.1.1,0,3 of 6,NA,NA,NA,NA,NA,2024-07-05_11h56.51.906,59.52380952380566,NA,NA,NA,NA,NA,NA,1,NA,NA,6687d1694e15829843e4dbb4,2,TRUE,26
﻿,NA,3,NA,atypical_scatterplots_main_test_T,NA,NA,NA,66868c1df973f7ededaff065,NA,001,PARTICIPANT,NA,atypical_scatterplots_main_T,NA,NA,NA,NA,NA,NA,NA,NA,NA,NA,36.68919999999925,NA,35.02409999999963,NA,NA,NA,NA,NA,NA,NA,NA,NA,3,"4 of 6
I understand that a fully anonymised dataset will be deposited in an open data repository at the end of the project.
I agree to take part on this basis.
",NA,2024-07-05_11h57.00.002,NA,NA,NA,NA,NA,NA,Win32,NA,NA,NA,NA,NA,NA,y,NA,0.6316999999992561,NA,NA,NA,NA,NA,NA,NA,NA,NA,NA,NA,NA,3,NA,NA,NA,NA,NA,NA,NA,NA,NA,NA,NA,NA,NA,NA,NA,NA,NA,NA,NA,NA,NA,NA,NA,2024.1.1,0,4 of 6,NA,NA,NA,NA,NA,2024-07-05_11h56.51.906,59.52380952380566,NA,NA,NA,NA,NA,NA,1,NA,NA,6687d1694e15829843e4dbb4,2,TRUE,26
﻿,NA,4,NA,atypical_scatterplots_main_test_T,NA,NA,NA,66868c1df973f7ededaff065,NA,001,PARTICIPANT,NA,atypical_scatterplots_main_T,NA,NA,NA,NA,NA,NA,NA,NA,NA,NA,38.6895,NA,36.6895,NA,NA,NA,NA,NA,NA,NA,NA,NA,4,"5 of 6
I understand that data collected during the study may be looked at by individuals from The University of Manchester or regulatory authorities, where it is relevant to my taking part in this research. I give permission for these individuals to have access to my data.
",NA,2024-07-05_11h57.00.002,NA,NA,NA,NA,NA,NA,Win32,NA,NA,NA,NA,NA,NA,y,NA,0.9717999999988862,NA,NA,NA,NA,NA,NA,NA,NA,NA,NA,NA,NA,4,NA,NA,NA,NA,NA,NA,NA,NA,NA,NA,NA,NA,NA,NA,NA,NA,NA,NA,NA,NA,NA,NA,NA,2024.1.1,0,5 of 6,NA,NA,NA,NA,NA,2024-07-05_11h56.51.906,59.52380952380566,NA,NA,NA,NA,NA,NA,1,NA,NA,6687d1694e15829843e4dbb4,2,TRUE,26
﻿,NA,5,NA,atypical_scatterplots_main_test_T,NA,NA,NA,66868c1df973f7ededaff065,NA,001,PARTICIPANT,NA,atypical_scatterplots_main_T,NA,NA,NA,NA,NA,NA,NA,NA,NA,NA,43.439400000000376,NA,38.68959999999963,NA,NA,NA,NA,NA,NA,NA,NA,NA,5,"6 of 6
I agree to take part in this study.
",NA,2024-07-05_11h57.00.002,NA,NA,NA,NA,NA,NA,Win32,NA,NA,NA,NA,NA,NA,y,NA,3.723500000000002,NA,NA,NA,NA,NA,NA,NA,NA,NA,NA,NA,NA,5,NA,NA,NA,NA,NA,NA,NA,NA,NA,NA,NA,NA,NA,NA,NA,NA,NA,NA,NA,NA,NA,NA,NA,2024.1.1,0,6 of 6,NA,NA,NA,NA,NA,2024-07-05_11h56.51.906,59.52380952380566,NA,NA,NA,NA,NA,NA,1,NA,NA,6687d1694e15829843e4dbb4,2,TRUE,26
﻿,NA,NA,NA,atypical_scatterplots_main_test_T,43.43959999999963,NA,NA,66868c1df973f7ededaff065,NA,001,PARTICIPANT,NA,atypical_scatterplots_main_T,NA,NA,NA,NA,NA,NA,NA,NA,NA,NA,NA,NA,NA,NA,NA,NA,NA,NA,NA,NA,NA,NA,NA,NA,NA,2024-07-05_11h57.00.002,NA,NA,NA,NA,NA,NA,Win32,NA,NA,NA,NA,NA,NA,NA,NA,NA,NA,NA,NA,NA,NA,NA,NA,NA,NA,NA,NA,NA,NA,NA,NA,NA,NA,NA,NA,NA,NA,NA,NA,NA,NA,NA,NA,NA,NA,49.922900000000375,NA,NA,NA,NA,NA,NA,2024.1.1,NA,NA,NA,NA,NA,NA,NA,2024-07-05_11h56.51.906,59.52380952380566,NA,NA,NA,NA,NA,NA,NA,NA,NA,6687d1694e15829843e4dbb4,2,TRUE,26
﻿,NA,NA,NA,atypical_scatterplots_main_test_T,NA,NA,NA,66868c1df973f7ededaff065,NA,001,PARTICIPANT,NA,atypical_scatterplots_main_T,NA,NA,NA,NA,NA,NA,NA,NA,NA,NA,NA,NA,NA,NA,NA,NA,NA,NA,NA,NA,NA,NA,NA,NA,NA,2024-07-05_11h57.00.002,NA,NA,NA,NA,NA,NA,Win32,Female,NA,NA,49.923,NA,NA,NA,NA,NA,NA,NA,NA,NA,NA,NA,NA,NA,NA,NA,NA,NA,NA,NA,NA,NA,NA,NA,NA,NA,NA,NA,NA,NA,NA,NA,NA,NA,NA,NA,NA,NA,NA,NA,NA,NA,2024.1.1,NA,NA,NA,48,NA,NA,NA,2024-07-05_11h56.51.906,59.52380952380566,NA,NA,NA,NA,55.82390000000038,NA,NA,NA,NA,6687d1694e15829843e4dbb4,2,TRUE,26
﻿,NA,NA,NA,atypical_scatterplots_main_test_T,NA,NA,NA,66868c1df973f7ededaff065,NA,001,PARTICIPANT,NA,atypical_scatterplots_main_T,NA,NA,NA,NA,NA,NA,NA,NA,NA,NA,NA,NA,NA,NA,NA,68.24059999999963,55.82409999999963,NA,3,NA,NA,NA,NA,NA,NA,2024-07-05_11h57.00.002,NA,NA,NA,NA,4,NA,Win32,NA,NA,NA,NA,NA,NA,NA,NA,NA,NA,NA,NA,NA,NA,NA,NA,NA,NA,NA,NA,3,NA,NA,NA,NA,NA,NA,NA,NA,NA,NA,NA,NA,NA,NA,NA,NA,NA,NA,NA,NA,NA,NA,NA,NA,2024.1.1,NA,NA,NA,NA,NA,3,NA,2024-07-05_11h56.51.906,59.52380952380566,NA,NA,NA,3,NA,NA,NA,NA,NA,6687d1694e15829843e4dbb4,2,TRUE,26
﻿,NA,NA,1,atypical_scatterplots_main_test_T,NA,NA,NA,66868c1df973f7ededaff065,NA,001,PARTICIPANT,NA,atypical_scatterplots_main_T,NA,NA,NA,NA,NA,NA,NA,NA,NA,NA,NA,NA,NA,NA,NA,NA,NA,4,NA,NA,NA,NA,NA,NA,NA,2024-07-05_11h57.00.002,NA,NA,NA,NA,NA,NA,Win32,NA,NA,NA,NA,2,NA,NA,NA,NA,NA,NA,NA,NA,NA,NA,NA,NA,NA,84.057,NA,NA,NA,NA,NA,NA,NA,NA,NA,NA,NA,NA,NA,NA,NA,68.24090000000037,NA,NA,NA,NA,NA,NA,NA,NA,4,NA,2024.1.1,NA,NA,NA,NA,NA,NA,NA,2024-07-05_11h56.51.906,59.52380952380566,NA,NA,NA,NA,NA,NA,NA,NA,NA,6687d1694e15829843e4dbb4,2,TRUE,26
﻿,3,NA,NA,atypical_scatterplots_main_test_T,NA,NA,NA,66868c1df973f7ededaff065,NA,001,PARTICIPANT,NA,atypical_scatterplots_main_T,NA,NA,NA,NA,NA,NA,NA,NA,NA,NA,NA,NA,NA,NA,NA,NA,NA,NA,NA,NA,NA,NA,NA,NA,NA,2024-07-05_11h57.00.002,NA,NA,NA,NA,NA,NA,Win32,NA,NA,NA,NA,NA,4,NA,NA,NA,98.60640000000038,NA,NA,NA,NA,NA,NA,NA,NA,NA,NA,NA,NA,NA,NA,NA,NA,NA,NA,NA,NA,NA,NA,84.05740000000037,NA,NA,NA,4,NA,NA,NA,NA,NA,3,NA,NA,2024.1.1,NA,NA,NA,NA,NA,NA,NA,2024-07-05_11h56.51.906,59.52380952380566,NA,NA,NA,NA,NA,NA,NA,NA,NA,6687d1694e15829843e4dbb4,2,TRUE,26
﻿,NA,NA,NA,atypical_scatterplots_main_test_T,NA,NA,NA,66868c1df973f7ededaff065,NA,001,PARTICIPANT,NA,atypical_scatterplots_main_T,NA,NA,NA,NA,NA,NA,NA,NA,NA,NA,NA,NA,NA,NA,NA,NA,NA,NA,NA,NA,NA,NA,NA,NA,NA,2024-07-05_11h57.00.002,NA,NA,NA,NA,NA,NA,Win32,NA,NA,NA,NA,NA,NA,NA,NA,NA,NA,2,112.10630000000074,NA,NA,NA,NA,NA,NA,NA,NA,NA,NA,NA,NA,NA,NA,NA,NA,2,NA,98.60669999999924,NA,NA,NA,NA,NA,NA,NA,NA,NA,NA,NA,NA,NA,4,2024.1.1,NA,NA,1,NA,NA,NA,NA,2024-07-05_11h56.51.906,59.52380952380566,NA,NA,NA,NA,NA,NA,NA,NA,NA,6687d1694e15829843e4dbb4,2,TRUE,26
﻿,NA,NA,NA,atypical_scatterplots_main_test_T,NA,NA,NA,66868c1df973f7ededaff065,NA,001,PARTICIPANT,NA,atypical_scatterplots_main_T,NA,NA,NA,NA,NA,NA,NA,NA,NA,NA,NA,NA,NA,NA,NA,NA,NA,NA,NA,112.10819999999926,NA,NA,NA,NA,Slide 1 of 7,2024-07-05_11h57.00.002,NA,NA,NA,NA,NA,NA,Win32,NA,NA,NA,NA,NA,NA,NA,NA,NA,NA,NA,NA,0,0,NA,NA,NA,NA,NA,NA,NA,NA,NA,NA,1,NA,0,NA,NA,NA,NA,NA,NA,NA,NA,NA,NA,NA,NA,NA,115.18980000000074,0,NA,NA,NA,2024.1.1,NA,NA,NA,NA,This experiment is about your beliefs about relatedness as depicted by scatterplots.,NA,NA,2024-07-05_11h56.51.906,59.52380952380566,NA,NA,NA,NA,NA,NA,NA,NA,NA,6687d1694e15829843e4dbb4,2,TRUE,26
﻿,NA,NA,NA,atypical_scatterplots_main_test_T,NA,NA,NA,66868c1df973f7ededaff065,NA,001,PARTICIPANT,NA,atypical_scatterplots_main_T,NA,NA,NA,NA,NA,NA,NA,NA,NA,NA,NA,NA,NA,NA,NA,NA,NA,NA,NA,115.20440000000038,NA,NA,NA,NA,Slide 2 of 7,2024-07-05_11h57.00.002,NA,NA,NA,NA,NA,NA,Win32,NA,NA,NA,NA,NA,NA,NA,NA,NA,NA,NA,NA,1,0,NA,NA,NA,NA,NA,NA,NA,NA,NA,NA,1,NA,1,NA,NA,NA,NA,NA,NA,NA,NA,NA,NA,NA,NA,NA,120.48990000000036,1,NA,NA,NA,2024.1.1,NA,NA,NA,NA,"First, you will be asked to read a statement and indicate how emotional you find it, and how strongly you believe the variables it describes to be related.",NA,NA,2024-07-05_11h56.51.906,59.52380952380566,NA,NA,NA,NA,NA,NA,NA,NA,NA,6687d1694e15829843e4dbb4,2,TRUE,26
﻿,NA,NA,NA,atypical_scatterplots_main_test_T,NA,NA,NA,66868c1df973f7ededaff065,NA,001,PARTICIPANT,NA,atypical_scatterplots_main_T,NA,NA,NA,NA,NA,NA,NA,NA,NA,NA,NA,NA,NA,NA,NA,NA,NA,NA,NA,120.497,NA,NA,NA,NA,Slide 3 of 7,2024-07-05_11h57.00.002,NA,NA,NA,NA,NA,NA,Win32,NA,NA,NA,NA,NA,NA,NA,NA,NA,NA,NA,NA,2,0,NA,NA,NA,NA,NA,NA,NA,NA,NA,NA,1,NA,2,NA,NA,NA,NA,NA,NA,NA,NA,NA,NA,NA,NA,NA,123.106,2,NA,NA,NA,2024.1.1,NA,NA,NA,NA,"Then, you will be shown a series of 45 scatterplots. Scatterplots depict the level of relatedness between variables.",NA,NA,2024-07-05_11h56.51.906,59.52380952380566,NA,NA,NA,NA,NA,NA,NA,NA,NA,6687d1694e15829843e4dbb4,2,TRUE,26
﻿,NA,NA,NA,atypical_scatterplots_main_test_T,NA,NA,NA,66868c1df973f7ededaff065,NA,001,PARTICIPANT,NA,atypical_scatterplots_main_T,NA,NA,NA,NA,NA,NA,NA,NA,NA,NA,NA,NA,NA,NA,NA,NA,NA,NA,NA,123.112,NA,NA,NA,NA,Slide 4 of 7,2024-07-05_11h57.00.002,NA,NA,NA,NA,NA,NA,Win32,NA,NA,NA,NA,NA,NA,NA,NA,NA,NA,NA,NA,3,0,NA,NA,NA,NA,NA,NA,NA,NA,NA,NA,1,NA,3,NA,NA,NA,NA,NA,NA,NA,NA,NA,NA,NA,NA,NA,125.75619999999924,3,NA,NA,NA,2024.1.1,NA,NA,NA,NA,This relatedness is often measured on a scale between 0 (not related at all) and 1 (extremely related).,NA,NA,2024-07-05_11h56.51.906,59.52380952380566,NA,NA,NA,NA,NA,NA,NA,NA,NA,6687d1694e15829843e4dbb4,2,TRUE,26
﻿,NA,NA,NA,atypical_scatterplots_main_test_T,NA,NA,NA,66868c1df973f7ededaff065,NA,001,PARTICIPANT,NA,atypical_scatterplots_main_T,NA,NA,NA,NA,NA,NA,NA,NA,NA,NA,NA,NA,NA,NA,NA,NA,NA,NA,NA,125.75640000000035,NA,NA,NA,NA,Slide 5 of 7,2024-07-05_11h57.00.002,NA,NA,NA,NA,NA,NA,Win32,NA,NA,NA,NA,NA,NA,NA,NA,NA,NA,NA,NA,4,0,NA,NA,NA,NA,NA,NA,NA,NA,NA,NA,1,NA,4,NA,NA,NA,NA,NA,NA,NA,NA,NA,NA,NA,NA,NA,129.13940000000036,4,NA,NA,NA,2024.1.1,NA,NA,NA,NA,The graphs you will see have been taken from a well-known British news source. The identity of this source has been obscured at their request.,NA,NA,2024-07-05_11h56.51.906,59.52380952380566,NA,NA,NA,NA,NA,NA,NA,NA,NA,6687d1694e15829843e4dbb4,2,TRUE,26
﻿,NA,NA,NA,atypical_scatterplots_main_test_T,NA,NA,NA,66868c1df973f7ededaff065,NA,001,PARTICIPANT,NA,atypical_scatterplots_main_T,NA,NA,NA,NA,NA,NA,NA,NA,NA,NA,NA,NA,NA,NA,NA,NA,NA,NA,NA,129.1455999999996,NA,NA,NA,NA,Slide 6 of 7,2024-07-05_11h57.00.002,NA,NA,NA,NA,NA,NA,Win32,NA,NA,NA,NA,NA,NA,NA,NA,NA,NA,NA,NA,5,0,NA,NA,NA,NA,NA,NA,NA,NA,NA,NA,1,NA,5,NA,NA,NA,NA,NA,NA,NA,NA,NA,NA,NA,NA,NA,131.30609999999962,5,NA,NA,NA,2024.1.1,NA,NA,NA,NA,"Once you have rated each scatterplot, press the spacebar to move onto the next trial.",NA,NA,2024-07-05_11h56.51.906,59.52380952380566,NA,NA,NA,NA,NA,NA,NA,NA,NA,6687d1694e15829843e4dbb4,2,TRUE,26
﻿,NA,NA,NA,atypical_scatterplots_main_test_T,NA,NA,NA,66868c1df973f7ededaff065,NA,001,PARTICIPANT,NA,atypical_scatterplots_main_T,NA,NA,NA,NA,NA,NA,NA,NA,NA,NA,NA,NA,NA,NA,NA,NA,NA,NA,NA,131.30630000000076,NA,NA,NA,NA,Slide 7 of 7,2024-07-05_11h57.00.002,NA,NA,NA,NA,NA,NA,Win32,NA,NA,NA,NA,NA,NA,NA,NA,NA,NA,NA,NA,6,0,NA,NA,NA,NA,NA,NA,NA,NA,NA,NA,1,NA,6,NA,NA,NA,NA,NA,NA,NA,NA,NA,NA,NA,NA,NA,133.70609999999965,6,NA,NA,NA,2024.1.1,NA,NA,NA,NA,You will now have the chance to practice rating graphs using the sliding scale.,NA,NA,2024-07-05_11h56.51.906,59.52380952380566,NA,NA,NA,NA,NA,NA,NA,NA,NA,6687d1694e15829843e4dbb4,2,TRUE,26
﻿,NA,NA,NA,atypical_scatterplots_main_test_T,NA,NA,NA,66868c1df973f7ededaff065,NA,001,PARTICIPANT,NA,atypical_scatterplots_main_T,NA,NA,NA,NA,NA,NA,NA,NA,NA,NA,NA,NA,NA,NA,NA,NA,NA,NA,NA,NA,133.70669999999927,NA,NA,NA,NA,2024-07-05_11h57.00.002,NA,NA,NA,NA,NA,NA,Win32,NA,NA,NA,NA,NA,NA,NA,NA,NA,NA,NA,NA,NA,NA,NA,NA,NA,NA,NA,NA,NA,NA,NA,NA,NA,NA,NA,NA,NA,NA,NA,NA,NA,NA,NA,NA,NA,NA,NA,136.406,NA,NA,NA,NA,NA,2024.1.1,NA,NA,NA,NA,NA,NA,NA,2024-07-05_11h56.51.906,59.52380952380566,NA,NA,NA,NA,NA,NA,NA,NA,NA,6687d1694e15829843e4dbb4,2,TRUE,26
﻿,NA,NA,NA,atypical_scatterplots_main_test_T,NA,NA,NA,66868c1df973f7ededaff065,space,001,PARTICIPANT,NA,atypical_scatterplots_main_T,NA,NA,NA,NA,0.8661999999992531,NA,NA,NA,NA,151.55719999999923,NA,NA,NA,NA,159.43990000000036,NA,NA,NA,NA,NA,NA,NA,NA,NA,NA,2024-07-05_11h57.00.002,NA,NA,4.958799999998888,NA,NA,NA,Win32,NA,NA,NA,NA,NA,NA,NA,NA,NA,NA,NA,NA,NA,NA,NA,NA,NA,NA,NA,NA,NA,NA,NA,156.53949999999998,NA,NA,NA,NA,NA,NA,NA,156.5399000000004,NA,NA,NA,NA,NA,NA,NA,NA,NA,NA,NA,NA,NA,2024.1.1,NA,NA,NA,NA,NA,NA,NA,2024-07-05_11h56.51.906,59.52380952380566,space,3.4115999999996234,NA,NA,NA,0.1573731805621575,NA,NA,NA,6687d1694e15829843e4dbb4,2,TRUE,26
﻿,NA,NA,NA,atypical_scatterplots_main_test_T,NA,181.6395,2,66868c1df973f7ededaff065,NA,001,PARTICIPANT,NA,atypical_scatterplots_main_T,NA,NA,NA,NA,NA,NA,NA,NA,159.44,NA,NA,NA,NA,1.883199999999249,NA,NA,NA,NA,NA,NA,NA,NA,NA,NA,NA,2024-07-05_11h57.00.002,NA,NA,NA,14.412099999999612,NA,NA,Win32,NA,NA,NA,NA,NA,NA,NA,NA,NA,NA,NA,NA,NA,NA,NA,NA,NA,NA,NA,NA,NA,NA,NA,NA,NA,NA,NA,NA,NA,NA,NA,NA,NA,20.2797000000011,NA,space,NA,2,NA,NA,NA,NA,NA,NA,NA,2024.1.1,NA,NA,NA,NA,NA,NA,NA,2024-07-05_11h56.51.906,59.52380952380566,NA,NA,NA,NA,NA,NA,NA,NA,NA,6687d1694e15829843e4dbb4,2,TRUE,26
﻿Please look at the following plot and use the slider to estimate the level of relatedness.,NA,NA,NA,atypical_scatterplots_main_test_T,NA,NA,NA,66868c1df973f7ededaff065,NA,001,PARTICIPANT,30_spice_T_hi.png,atypical_scatterplots_main_T,NA,NA,NA,NA,NA,17.8134000000004,0,0,NA,NA,NA,181.6425999999996,NA,NA,NA,NA,NA,NA,NA,NA,NA,NA,NA,NA,NA,2024-07-05_11h57.00.002,0,30T,NA,NA,NA,NA,Win32,NA,all_plots/30_spice_T_hi.png,29,NA,NA,NA,NA,NA,NA,NA,NA,NA,NA,NA,0.5965233569369617,NA,space,NA,NA,black,NA,NA,NA,NA,NA,1,NA,NA,NA,202.0234000000004,NA,NA,NA,NA,NA,NA,NA,NA,NA,NA,NA,NA,NA,NA,NA,2024.1.1,NA,NA,NA,NA,NA,NA,NA,2024-07-05_11h56.51.906,59.52380952380566,NA,NA,19.048799999998863,NA,NA,NA,NA,NA,NA,6687d1694e15829843e4dbb4,2,TRUE,26
﻿Please look at the following plot and use the slider to estimate the level of relatedness.,NA,NA,NA,atypical_scatterplots_main_test_T,NA,NA,NA,66868c1df973f7ededaff065,NA,001,PARTICIPANT,25_spice_T_hi.png,atypical_scatterplots_main_T,NA,NA,NA,NA,NA,11.177099999999626,1,1,NA,NA,NA,202.02369999999928,NA,NA,NA,NA,NA,NA,NA,NA,NA,NA,NA,NA,NA,2024-07-05_11h57.00.002,0,25T,NA,NA,NA,NA,Win32,NA,all_plots/25_spice_T_hi.png,24,NA,NA,NA,NA,NA,NA,NA,NA,NA,NA,NA,0.6103913101676584,NA,space,NA,NA,black,NA,NA,NA,NA,NA,1,NA,NA,NA,215.7560999999996,NA,NA,NA,NA,NA,NA,NA,NA,NA,NA,NA,NA,NA,NA,NA,2024.1.1,NA,NA,NA,NA,NA,NA,NA,2024-07-05_11h56.51.906,59.52380952380566,NA,NA,10.392800000000731,NA,NA,NA,NA,NA,NA,6687d1694e15829843e4dbb4,2,TRUE,26
﻿Please look at the following plot and use the slider to estimate the level of relatedness.,NA,NA,NA,atypical_scatterplots_main_test_T,NA,NA,NA,66868c1df973f7ededaff065,NA,001,PARTICIPANT,37_spice_T_hi.png,atypical_scatterplots_main_T,NA,NA,NA,NA,NA,8.102599999999626,2,2,NA,NA,NA,215.76209999999963,NA,NA,NA,NA,NA,NA,NA,NA,NA,NA,NA,NA,NA,2024-07-05_11h57.00.002,0,37T,NA,NA,NA,NA,Win32,NA,all_plots/37_spice_T_hi.png,36,NA,NA,NA,NA,NA,NA,NA,NA,NA,NA,NA,0.5530706354429228,NA,space,NA,NA,black,NA,NA,NA,NA,NA,1,NA,NA,NA,226.43990000000036,NA,NA,NA,NA,NA,NA,NA,NA,NA,NA,NA,NA,NA,NA,NA,2024.1.1,NA,NA,NA,NA,NA,NA,NA,2024-07-05_11h56.51.906,59.52380952380566,NA,NA,9.81449999999998,NA,NA,NA,NA,NA,NA,6687d1694e15829843e4dbb4,2,TRUE,26
﻿Please look at the following plot and use the slider to estimate the level of relatedness.,NA,NA,NA,atypical_scatterplots_main_test_T,NA,NA,NA,66868c1df973f7ededaff065,NA,001,PARTICIPANT,44_spice_T_hi.png,atypical_scatterplots_main_T,NA,NA,NA,NA,NA,10.30140000000037,3,3,NA,NA,NA,226.44040000000035,NA,NA,NA,NA,NA,NA,NA,NA,NA,NA,NA,NA,NA,2024-07-05_11h57.00.002,0,44T,NA,NA,NA,NA,Win32,NA,all_plots/44_spice_T_hi.png,43,NA,NA,NA,NA,NA,NA,NA,NA,NA,NA,NA,0.6436742365354217,NA,space,NA,NA,black,NA,NA,NA,NA,NA,1,NA,NA,NA,239.306,NA,NA,NA,NA,NA,NA,NA,NA,NA,NA,NA,NA,NA,NA,NA,2024.1.1,NA,NA,NA,NA,NA,NA,NA,2024-07-05_11h56.51.906,59.52380952380566,NA,NA,11.801900000000389,NA,NA,NA,NA,NA,NA,6687d1694e15829843e4dbb4,2,TRUE,26
﻿Please look at the following plot and use the slider to estimate the level of relatedness.,NA,NA,NA,atypical_scatterplots_main_test_T,NA,NA,NA,66868c1df973f7ededaff065,NA,001,PARTICIPANT,43_spice_T_hi.png,atypical_scatterplots_main_T,NA,NA,NA,NA,NA,7.309299999998842,4,4,NA,NA,NA,239.30630000000076,NA,NA,NA,NA,NA,NA,NA,NA,NA,NA,NA,NA,NA,2024-07-05_11h57.00.002,0,43T,NA,NA,NA,NA,Win32,NA,all_plots/43_spice_T_hi.png,42,NA,NA,NA,NA,NA,NA,NA,NA,NA,NA,NA,0.6843534170405239,NA,space,NA,NA,black,NA,NA,NA,NA,NA,1,NA,NA,NA,249.1894000000004,NA,NA,NA,NA,NA,NA,NA,NA,NA,NA,NA,NA,NA,NA,NA,2024.1.1,NA,NA,NA,NA,NA,NA,NA,2024-07-05_11h56.51.906,59.52380952380566,NA,NA,8.525999999999982,NA,NA,NA,NA,NA,NA,6687d1694e15829843e4dbb4,2,TRUE,26
﻿Please look at the following plot and use the slider to estimate the level of relatedness.,NA,NA,NA,atypical_scatterplots_main_test_T,NA,NA,NA,66868c1df973f7ededaff065,NA,001,PARTICIPANT,24_spice_T_hi.png,atypical_scatterplots_main_T,NA,NA,NA,NA,NA,7.144999999999982,5,5,NA,NA,NA,249.1896999999992,NA,NA,NA,NA,NA,NA,NA,NA,NA,NA,NA,NA,NA,2024-07-05_11h57.00.002,0,24T,NA,NA,NA,NA,Win32,NA,all_plots/24_spice_T_hi.png,23,NA,NA,NA,NA,NA,NA,NA,NA,NA,NA,NA,0.5382781892397484,NA,space,NA,NA,black,NA,NA,NA,NA,NA,1,NA,NA,NA,258.8895,NA,NA,NA,NA,NA,NA,NA,NA,NA,NA,NA,NA,NA,NA,NA,2024.1.1,NA,NA,NA,NA,NA,NA,NA,2024-07-05_11h56.51.906,59.52380952380566,NA,NA,8.538300000000731,NA,NA,NA,NA,NA,NA,6687d1694e15829843e4dbb4,2,TRUE,26
﻿Please look at the following plot and use the slider to estimate the level of relatedness.,NA,NA,NA,atypical_scatterplots_main_test_T,NA,NA,NA,66868c1df973f7ededaff065,NA,001,PARTICIPANT,4_spice_T_hi.png,atypical_scatterplots_main_T,NA,NA,NA,NA,NA,9.332900000000391,6,6,NA,NA,NA,258.8898000000007,NA,NA,NA,NA,NA,NA,NA,NA,NA,NA,NA,NA,NA,2024-07-05_11h57.00.002,0,4T,NA,NA,NA,NA,Win32,NA,all_plots/4_spice_T_hi.png,3,NA,NA,NA,NA,NA,NA,NA,NA,NA,NA,NA,0.5031460907125194,NA,space,NA,NA,black,NA,NA,NA,NA,NA,1,NA,NA,NA,270.78940000000034,NA,NA,NA,NA,NA,NA,NA,NA,NA,NA,NA,NA,NA,NA,NA,2024.1.1,NA,NA,NA,NA,NA,NA,NA,2024-07-05_11h56.51.906,59.52380952380566,NA,NA,11.10359999999963,NA,NA,NA,NA,NA,NA,6687d1694e15829843e4dbb4,2,TRUE,26
﻿Please look at the following plot and use the slider to estimate the level of relatedness.,NA,NA,NA,atypical_scatterplots_main_test_T,NA,NA,NA,66868c1df973f7ededaff065,NA,001,PARTICIPANT,10_spice_T_hi.png,atypical_scatterplots_main_T,NA,NA,NA,NA,NA,5.2760000000000105,7,7,NA,NA,NA,270.78980000000075,NA,NA,NA,NA,NA,NA,NA,NA,NA,NA,NA,NA,NA,2024-07-05_11h57.00.002,0,10T,NA,NA,NA,NA,Win32,NA,all_plots/10_spice_T_hi.png,9,NA,NA,NA,NA,NA,NA,NA,NA,NA,NA,NA,0.5003726117950863,NA,space,NA,NA,black,NA,NA,NA,NA,NA,1,NA,NA,NA,278.62319999999926,NA,NA,NA,NA,NA,NA,NA,NA,NA,NA,NA,NA,NA,NA,NA,2024.1.1,NA,NA,NA,NA,NA,NA,NA,2024-07-05_11h56.51.906,59.52380952380566,NA,NA,6.7620000000000005,NA,NA,NA,NA,NA,NA,6687d1694e15829843e4dbb4,2,TRUE,26
﻿Please look at the following plot and use the slider to estimate the level of relatedness.,NA,NA,NA,atypical_scatterplots_main_test_T,NA,NA,NA,66868c1df973f7ededaff065,NA,001,PARTICIPANT,14_spice_T_hi.png,atypical_scatterplots_main_T,NA,NA,NA,NA,NA,6.2549999999999955,8,8,NA,NA,NA,278.62369999999925,NA,NA,NA,NA,NA,NA,NA,NA,NA,NA,NA,NA,NA,2024-07-05_11h57.00.002,0,14T,NA,NA,NA,NA,Win32,NA,all_plots/14_spice_T_hi.png,13,NA,NA,NA,NA,NA,NA,NA,NA,NA,NA,NA,0.5771083217283918,NA,space,NA,NA,black,NA,NA,NA,NA,NA,1,NA,NA,NA,287.45640000000037,NA,NA,NA,NA,NA,NA,NA,NA,NA,NA,NA,NA,NA,NA,NA,2024.1.1,NA,NA,NA,NA,NA,NA,NA,2024-07-05_11h56.51.906,59.52380952380566,NA,NA,7.911600000001442,NA,NA,NA,NA,NA,NA,6687d1694e15829843e4dbb4,2,TRUE,26
﻿Please IGNORE the plot and set the slider to 0.,NA,NA,NA,atypical_scatterplots_main_test_T,NA,NA,NA,66868c1df973f7ededaff065,NA,001,PARTICIPANT,1_spice_T_hi.png,atypical_scatterplots_main_T,NA,NA,NA,NA,NA,3.3753999999984785,9,9,NA,NA,NA,287.4566999999992,NA,NA,NA,NA,NA,NA,NA,NA,NA,NA,NA,NA,NA,2024-07-05_11h57.00.002,0,46T,NA,NA,NA,NA,Win32,NA,all_plots/1_spice_T_hi.png,45,NA,NA,NA,NA,NA,NA,NA,NA,NA,NA,NA,2.0360259112522e-4,NA,space,NA,NA,red,NA,NA,NA,NA,NA,1,NA,NA,NA,293.3945999999996,NA,NA,NA,NA,NA,NA,NA,NA,NA,NA,NA,NA,NA,NA,NA,2024.1.1,NA,NA,NA,NA,NA,NA,NA,2024-07-05_11h56.51.906,59.52380952380566,NA,NA,4.2239999999999895,NA,NA,NA,NA,NA,NA,6687d1694e15829843e4dbb4,2,TRUE,26
﻿Please look at the following plot and use the slider to estimate the level of relatedness.,NA,NA,NA,atypical_scatterplots_main_test_T,NA,NA,NA,66868c1df973f7ededaff065,NA,001,PARTICIPANT,31_spice_T_hi.png,atypical_scatterplots_main_T,NA,NA,NA,NA,NA,7.025099999999668,10,10,NA,NA,NA,293.3950999999996,NA,NA,NA,NA,NA,NA,NA,NA,NA,NA,NA,NA,NA,2024-07-05_11h57.00.002,0,31T,NA,NA,NA,NA,Win32,NA,all_plots/31_spice_T_hi.png,30,NA,NA,NA,NA,NA,NA,NA,NA,NA,NA,NA,0.5530706354429228,NA,space,NA,NA,black,NA,NA,NA,NA,NA,1,NA,NA,NA,302.9729000000004,NA,NA,NA,NA,NA,NA,NA,NA,NA,NA,NA,NA,NA,NA,NA,2024.1.1,NA,NA,NA,NA,NA,NA,NA,2024-07-05_11h56.51.906,59.52380952380566,NA,NA,8.933099999999627,NA,NA,NA,NA,NA,NA,6687d1694e15829843e4dbb4,2,TRUE,26
﻿Please look at the following plot and use the slider to estimate the level of relatedness.,NA,NA,NA,atypical_scatterplots_main_test_T,NA,NA,NA,66868c1df973f7ededaff065,NA,001,PARTICIPANT,32_spice_T_hi.png,atypical_scatterplots_main_T,NA,NA,NA,NA,NA,10.19429999999886,11,11,NA,NA,NA,302.97340000000037,NA,NA,NA,NA,NA,NA,NA,NA,NA,NA,NA,NA,NA,2024-07-05_11h57.00.002,0,32T,NA,NA,NA,NA,Win32,NA,all_plots/32_spice_T_hi.png,31,NA,NA,NA,NA,NA,NA,NA,NA,NA,NA,NA,0.5086933589049029,NA,space,NA,NA,black,NA,NA,NA,NA,NA,1,NA,NA,NA,315.756,NA,NA,NA,NA,NA,NA,NA,NA,NA,NA,NA,NA,NA,NA,NA,2024.1.1,NA,NA,NA,NA,NA,NA,NA,2024-07-05_11h56.51.906,59.52380952380566,NA,NA,11.521999999999991,NA,NA,NA,NA,NA,NA,6687d1694e15829843e4dbb4,2,TRUE,26
﻿Please look at the following plot and use the slider to estimate the level of relatedness.,NA,NA,NA,atypical_scatterplots_main_test_T,NA,NA,NA,66868c1df973f7ededaff065,NA,001,PARTICIPANT,27_spice_T_hi.png,atypical_scatterplots_main_T,NA,NA,NA,NA,NA,4.9161999999992645,12,12,NA,NA,NA,315.75619999999924,NA,NA,NA,NA,NA,NA,NA,NA,NA,NA,NA,NA,NA,2024-07-05_11h57.00.002,0,27T,NA,NA,NA,NA,Win32,NA,all_plots/27_spice_T_hi.png,26,NA,NA,NA,NA,NA,NA,NA,NA,NA,NA,NA,0.5188631540311784,NA,space,NA,NA,black,NA,NA,NA,NA,NA,1,NA,NA,NA,323.23969999999923,NA,NA,NA,NA,NA,NA,NA,NA,NA,NA,NA,NA,NA,NA,NA,2024.1.1,NA,NA,NA,NA,NA,NA,NA,2024-07-05_11h56.51.906,59.52380952380566,NA,NA,6.795899999998483,NA,NA,NA,NA,NA,NA,6687d1694e15829843e4dbb4,2,TRUE,26
﻿Please look at the following plot and use the slider to estimate the level of relatedness.,NA,NA,NA,atypical_scatterplots_main_test_T,NA,NA,NA,66868c1df973f7ededaff065,NA,001,PARTICIPANT,15_spice_T_hi.png,atypical_scatterplots_main_T,NA,NA,NA,NA,NA,6.684599999999591,13,13,NA,NA,NA,323.24030000000073,NA,NA,NA,NA,NA,NA,NA,NA,NA,NA,NA,NA,NA,2024-07-05_11h57.00.002,0,15T,NA,NA,NA,NA,Win32,NA,all_plots/15_spice_T_hi.png,14,NA,NA,NA,NA,NA,NA,NA,NA,NA,NA,NA,0.5170140439432162,NA,space,NA,NA,black,NA,NA,NA,NA,NA,1,NA,NA,NA,332.506,NA,NA,NA,NA,NA,NA,NA,NA,NA,NA,NA,NA,NA,NA,NA,2024.1.1,NA,NA,NA,NA,NA,NA,NA,2024-07-05_11h56.51.906,59.52380952380566,NA,NA,8.126699999999232,NA,NA,NA,NA,NA,NA,6687d1694e15829843e4dbb4,2,TRUE,26
﻿Please look at the following plot and use the slider to estimate the level of relatedness.,NA,NA,NA,atypical_scatterplots_main_test_T,NA,NA,NA,66868c1df973f7ededaff065,NA,001,PARTICIPANT,45_spice_T_hi.png,atypical_scatterplots_main_T,NA,NA,NA,NA,NA,10.364900000000375,14,14,NA,NA,NA,332.50630000000075,NA,NA,NA,NA,NA,NA,NA,NA,NA,NA,NA,NA,NA,2024-07-05_11h57.00.002,0,45T,NA,NA,NA,NA,Win32,NA,all_plots/45_spice_T_hi.png,44,NA,NA,NA,NA,NA,NA,NA,NA,NA,NA,NA,0.6723346359692928,NA,space,NA,NA,black,NA,NA,NA,NA,NA,1,NA,NA,NA,345.43930000000074,NA,NA,NA,NA,NA,NA,NA,NA,NA,NA,NA,NA,NA,NA,NA,2024.1.1,NA,NA,NA,NA,NA,NA,NA,2024-07-05_11h56.51.906,59.52380952380566,NA,NA,12.181900000000384,NA,NA,NA,NA,NA,NA,6687d1694e15829843e4dbb4,2,TRUE,26
﻿Please look at the following plot and use the slider to estimate the level of relatedness.,NA,NA,NA,atypical_scatterplots_main_test_T,NA,NA,NA,66868c1df973f7ededaff065,NA,001,PARTICIPANT,29_spice_T_hi.png,atypical_scatterplots_main_T,NA,NA,NA,NA,NA,7.820700000001125,15,15,NA,NA,NA,345.4394000000004,NA,NA,NA,NA,NA,NA,NA,NA,NA,NA,NA,NA,NA,2024-07-05_11h57.00.002,0,29T,NA,NA,NA,NA,Win32,NA,all_plots/29_spice_T_hi.png,28,NA,NA,NA,NA,NA,NA,NA,NA,NA,NA,NA,0.5586177794922995,NA,space,NA,NA,black,NA,NA,NA,NA,NA,1,NA,NA,NA,355.8225,NA,NA,NA,NA,NA,NA,NA,NA,NA,NA,NA,NA,NA,NA,NA,2024.1.1,NA,NA,NA,NA,NA,NA,NA,2024-07-05_11h56.51.906,59.52380952380566,NA,NA,9.838400000000377,NA,NA,NA,NA,NA,NA,6687d1694e15829843e4dbb4,2,TRUE,26
﻿Please look at the following plot and use the slider to estimate the level of relatedness.,NA,NA,NA,atypical_scatterplots_main_test_T,NA,NA,NA,66868c1df973f7ededaff065,NA,001,PARTICIPANT,16_spice_T_hi.png,atypical_scatterplots_main_T,NA,NA,NA,NA,NA,7.863900000000399,16,16,NA,NA,NA,355.82290000000035,NA,NA,NA,NA,NA,NA,NA,NA,NA,NA,NA,NA,NA,2024-07-05_11h57.00.002,0,16T,NA,NA,NA,NA,Win32,NA,all_plots/16_spice_T_hi.png,15,NA,NA,NA,NA,NA,NA,NA,NA,NA,NA,NA,0.5105424069213618,NA,space,NA,NA,black,NA,NA,NA,NA,NA,1,NA,NA,NA,366.2560999999996,NA,NA,NA,NA,NA,NA,NA,NA,NA,NA,NA,NA,NA,NA,NA,2024.1.1,NA,NA,NA,NA,NA,NA,NA,2024-07-05_11h56.51.906,59.52380952380566,NA,NA,9.353999999999983,NA,NA,NA,NA,NA,NA,6687d1694e15829843e4dbb4,2,TRUE,26
﻿Please look at the following plot and use the slider to estimate the level of relatedness.,NA,NA,NA,atypical_scatterplots_main_test_T,NA,NA,NA,66868c1df973f7ededaff065,NA,001,PARTICIPANT,12_spice_T_hi.png,atypical_scatterplots_main_T,NA,NA,NA,NA,NA,5.817799999998897,17,17,NA,NA,NA,366.2564000000004,NA,NA,NA,NA,NA,NA,NA,NA,NA,NA,NA,NA,NA,2024-07-05_11h57.00.002,0,12T,NA,NA,NA,NA,Win32,NA,all_plots/12_spice_T_hi.png,11,NA,NA,NA,NA,NA,NA,NA,NA,NA,NA,NA,0.5281083941134729,NA,space,NA,NA,black,NA,NA,NA,NA,NA,1,NA,NA,NA,374.6394000000003,NA,NA,NA,NA,NA,NA,NA,NA,NA,NA,NA,NA,NA,NA,NA,2024.1.1,NA,NA,NA,NA,NA,NA,NA,2024-07-05_11h56.51.906,59.52380952380566,NA,NA,7.8478000000007455,NA,NA,NA,NA,NA,NA,6687d1694e15829843e4dbb4,2,TRUE,26
﻿Please IGNORE the plot and set the slider to 1.,NA,NA,NA,atypical_scatterplots_main_test_T,NA,NA,NA,66868c1df973f7ededaff065,NA,001,PARTICIPANT,4_spice_T_hi.png,atypical_scatterplots_main_T,NA,NA,NA,NA,NA,5.29849999999999,18,18,NA,NA,NA,374.63969999999927,NA,NA,NA,NA,NA,NA,NA,NA,NA,NA,NA,NA,NA,2024-07-05_11h57.00.002,0,49T,NA,NA,NA,NA,Win32,NA,all_plots/4_spice_T_hi.png,48,NA,NA,NA,NA,NA,NA,NA,NA,NA,NA,NA,1,NA,space,NA,NA,red,NA,NA,NA,NA,NA,1,NA,NA,NA,382.5061999999992,NA,NA,NA,NA,NA,NA,NA,NA,NA,NA,NA,NA,NA,NA,NA,2024.1.1,NA,NA,NA,NA,NA,NA,NA,2024-07-05_11h56.51.906,59.52380952380566,NA,NA,6.369800000000737,NA,NA,NA,NA,NA,NA,6687d1694e15829843e4dbb4,2,TRUE,26
﻿Please look at the following plot and use the slider to estimate the level of relatedness.,NA,NA,NA,atypical_scatterplots_main_test_T,NA,NA,NA,66868c1df973f7ededaff065,NA,001,PARTICIPANT,7_spice_T_hi.png,atypical_scatterplots_main_T,NA,NA,NA,NA,NA,5.983000000000004,19,19,NA,NA,NA,382.5065,NA,NA,NA,NA,NA,NA,NA,NA,NA,NA,NA,NA,NA,2024-07-05_11h57.00.002,0,7T,NA,NA,NA,NA,Win32,NA,all_plots/7_spice_T_hi.png,6,NA,NA,NA,NA,NA,NA,NA,NA,NA,NA,NA,0.49020281666881055,NA,space,NA,NA,black,NA,NA,NA,NA,NA,1,NA,NA,NA,391.0725999999996,NA,NA,NA,NA,NA,NA,NA,NA,NA,NA,NA,NA,NA,NA,NA,2024.1.1,NA,NA,NA,NA,NA,NA,NA,2024-07-05_11h56.51.906,59.52380952380566,NA,NA,6.973500000000001,NA,NA,NA,NA,NA,NA,6687d1694e15829843e4dbb4,2,TRUE,26
﻿Please look at the following plot and use the slider to estimate the level of relatedness.,NA,NA,NA,atypical_scatterplots_main_test_T,NA,NA,NA,66868c1df973f7ededaff065,NA,001,PARTICIPANT,35_spice_T_hi.png,atypical_scatterplots_main_T,NA,NA,NA,NA,NA,3.699299999998914,20,20,NA,NA,NA,391.07290000000035,NA,NA,NA,NA,NA,NA,NA,NA,NA,NA,NA,NA,NA,2024-07-05_11h57.00.002,0,35T,NA,NA,NA,NA,Win32,NA,all_plots/35_spice_T_hi.png,34,NA,NA,NA,NA,NA,NA,NA,NA,NA,NA,NA,0.5623158755252173,NA,space,NA,NA,black,NA,NA,NA,NA,NA,1,NA,NA,NA,397.33919999999927,NA,NA,NA,NA,NA,NA,NA,NA,NA,NA,NA,NA,NA,NA,NA,2024.1.1,NA,NA,NA,NA,NA,NA,NA,2024-07-05_11h56.51.906,59.52380952380566,NA,NA,5.3870000000000005,NA,NA,NA,NA,NA,NA,6687d1694e15829843e4dbb4,2,TRUE,26
﻿Please look at the following plot and use the slider to estimate the level of relatedness.,NA,NA,NA,atypical_scatterplots_main_test_T,NA,NA,NA,66868c1df973f7ededaff065,NA,001,PARTICIPANT,3_spice_T_hi.png,atypical_scatterplots_main_T,NA,NA,NA,NA,NA,2.768700000001104,21,21,NA,NA,NA,397.3394000000003,NA,NA,NA,NA,NA,NA,NA,NA,NA,NA,NA,NA,NA,2024-07-05_11h57.00.002,0,3T,NA,NA,NA,NA,Win32,NA,all_plots/3_spice_T_hi.png,2,NA,NA,NA,NA,NA,NA,NA,NA,NA,NA,NA,0.5281083941134729,NA,space,NA,NA,black,NA,NA,NA,NA,NA,1,NA,NA,NA,402.6725999999996,NA,NA,NA,NA,NA,NA,NA,NA,NA,NA,NA,NA,NA,NA,NA,2024.1.1,NA,NA,NA,NA,NA,NA,NA,2024-07-05_11h56.51.906,59.52380952380566,NA,NA,4.412900000000377,NA,NA,NA,NA,NA,NA,6687d1694e15829843e4dbb4,2,TRUE,26
﻿Please look at the following plot and use the slider to estimate the level of relatedness.,NA,NA,NA,atypical_scatterplots_main_test_T,NA,NA,NA,66868c1df973f7ededaff065,NA,001,PARTICIPANT,11_spice_T_hi.png,atypical_scatterplots_main_T,NA,NA,NA,NA,NA,5.785500000000013,22,22,NA,NA,NA,402.6729000000004,NA,NA,NA,NA,NA,NA,NA,NA,NA,NA,NA,NA,NA,2024-07-05_11h57.00.002,0,11T,NA,NA,NA,NA,Win32,NA,all_plots/11_spice_T_hi.png,10,NA,NA,NA,NA,NA,NA,NA,NA,NA,NA,NA,0.5789573697448506,NA,space,NA,NA,black,NA,NA,NA,NA,NA,1,NA,NA,NA,411.0393000000007,NA,NA,NA,NA,NA,NA,NA,NA,NA,NA,NA,NA,NA,NA,NA,2024.1.1,NA,NA,NA,NA,NA,NA,NA,2024-07-05_11h56.51.906,59.52380952380566,NA,NA,7.791400000000351,NA,NA,NA,NA,NA,NA,6687d1694e15829843e4dbb4,2,TRUE,26
﻿Please look at the following plot and use the slider to estimate the level of relatedness.,NA,NA,NA,atypical_scatterplots_main_test_T,NA,NA,NA,66868c1df973f7ededaff065,NA,001,PARTICIPANT,33_spice_T_hi.png,atypical_scatterplots_main_T,NA,NA,NA,NA,NA,4.443599999999606,23,23,NA,NA,NA,411.0395999999996,NA,NA,NA,NA,NA,NA,NA,NA,NA,NA,NA,NA,NA,2024-07-05_11h57.00.002,0,33T,NA,NA,NA,NA,Win32,NA,all_plots/33_spice_T_hi.png,32,NA,NA,NA,NA,NA,NA,NA,NA,NA,NA,NA,0.5225612500640963,NA,space,NA,NA,black,NA,NA,NA,NA,NA,1,NA,NA,NA,418.0559000000003,NA,NA,NA,NA,NA,NA,NA,NA,NA,NA,NA,NA,NA,NA,NA,2024.1.1,NA,NA,NA,NA,NA,NA,NA,2024-07-05_11h56.51.906,59.52380952380566,NA,NA,6.088300000000743,NA,NA,NA,NA,NA,NA,6687d1694e15829843e4dbb4,2,TRUE,26
﻿Please look at the following plot and use the slider to estimate the level of relatedness.,NA,NA,NA,atypical_scatterplots_main_test_T,NA,NA,NA,66868c1df973f7ededaff065,NA,001,PARTICIPANT,38_spice_T_hi.png,atypical_scatterplots_main_T,NA,NA,NA,NA,NA,5.35450000000003,24,24,NA,NA,NA,418.0561999999993,NA,NA,NA,NA,NA,NA,NA,NA,NA,NA,NA,NA,NA,2024-07-05_11h57.00.002,0,38T,NA,NA,NA,NA,Win32,NA,all_plots/38_spice_T_hi.png,37,NA,NA,NA,NA,NA,NA,NA,NA,NA,NA,NA,0.6085422000796961,NA,space,NA,NA,black,NA,NA,NA,NA,NA,1,NA,NA,NA,425.9725999999996,NA,NA,NA,NA,NA,NA,NA,NA,NA,NA,NA,NA,NA,NA,NA,2024.1.1,NA,NA,NA,NA,NA,NA,NA,2024-07-05_11h56.51.906,59.52380952380566,NA,NA,6.271999999999991,NA,NA,NA,NA,NA,NA,6687d1694e15829843e4dbb4,2,TRUE,26
﻿Please IGNORE the plot and set the slider to 0.,NA,NA,NA,atypical_scatterplots_main_test_T,NA,NA,NA,66868c1df973f7ededaff065,NA,001,PARTICIPANT,2_spice_T_hi.png,atypical_scatterplots_main_T,NA,NA,NA,NA,NA,3.35990000000038,25,25,NA,NA,NA,425.97280000000075,NA,NA,NA,NA,NA,NA,NA,NA,NA,NA,NA,NA,NA,2024-07-05_11h57.00.002,0,47T,NA,NA,NA,NA,Win32,NA,all_plots/2_spice_T_hi.png,46,NA,NA,NA,NA,NA,NA,NA,NA,NA,NA,NA,0.00205265060758408,NA,space,NA,NA,red,NA,NA,NA,NA,NA,1,NA,NA,NA,431.8898000000007,NA,NA,NA,NA,NA,NA,NA,NA,NA,NA,NA,NA,NA,NA,NA,2024.1.1,NA,NA,NA,NA,NA,NA,NA,2024-07-05_11h56.51.906,59.52380952380566,NA,NA,5.075499999999977,NA,NA,NA,NA,NA,NA,6687d1694e15829843e4dbb4,2,TRUE,26
﻿Please look at the following plot and use the slider to estimate the level of relatedness.,NA,NA,NA,atypical_scatterplots_main_test_T,NA,NA,NA,66868c1df973f7ededaff065,NA,001,PARTICIPANT,28_spice_T_hi.png,atypical_scatterplots_main_T,NA,NA,NA,NA,NA,3.894999999999982,26,26,NA,NA,NA,431.8900999999996,NA,NA,NA,NA,NA,NA,NA,NA,NA,NA,NA,NA,NA,2024-07-05_11h57.00.002,0,28T,NA,NA,NA,NA,Win32,NA,all_plots/28_spice_T_hi.png,27,NA,NA,NA,NA,NA,NA,NA,NA,NA,NA,NA,0.5077688038609217,NA,space,NA,NA,black,NA,NA,NA,NA,NA,1,NA,NA,NA,438.33969999999925,NA,NA,NA,NA,NA,NA,NA,NA,NA,NA,NA,NA,NA,NA,NA,2024.1.1,NA,NA,NA,NA,NA,NA,NA,2024-07-05_11h56.51.906,59.52380952380566,NA,NA,5.637999999999977,NA,NA,NA,NA,NA,NA,6687d1694e15829843e4dbb4,2,TRUE,26
﻿Please look at the following plot and use the slider to estimate the level of relatedness.,NA,NA,NA,atypical_scatterplots_main_test_T,NA,NA,NA,66868c1df973f7ededaff065,NA,001,PARTICIPANT,1_spice_T_hi.png,atypical_scatterplots_main_T,NA,NA,NA,NA,NA,3.3729999999999905,27,27,NA,NA,NA,438.3401999999992,NA,NA,NA,NA,NA,NA,NA,NA,NA,NA,NA,NA,NA,2024-07-05_11h57.00.002,0,1T,NA,NA,NA,NA,Win32,NA,all_plots/1_spice_T_hi.png,0,NA,NA,NA,NA,NA,NA,NA,NA,NA,NA,NA,0.5974479119809429,NA,space,NA,NA,black,NA,NA,NA,NA,NA,1,NA,NA,NA,444.2728000000008,NA,NA,NA,NA,NA,NA,NA,NA,NA,NA,NA,NA,NA,NA,NA,2024.1.1,NA,NA,NA,NA,NA,NA,NA,2024-07-05_11h56.51.906,59.52380952380566,NA,NA,5.171200000001079,NA,NA,NA,NA,NA,NA,6687d1694e15829843e4dbb4,2,TRUE,26
﻿Please look at the following plot and use the slider to estimate the level of relatedness.,NA,NA,NA,atypical_scatterplots_main_test_T,NA,NA,NA,66868c1df973f7ededaff065,NA,001,PARTICIPANT,13_spice_T_hi.png,atypical_scatterplots_main_T,NA,NA,NA,NA,NA,2.9499999999999886,28,28,NA,NA,NA,444.2730999999996,NA,NA,NA,NA,NA,NA,NA,NA,NA,NA,NA,NA,NA,2024-07-05_11h57.00.002,0,13T,NA,NA,NA,NA,Win32,NA,all_plots/13_spice_T_hi.png,12,NA,NA,NA,NA,NA,NA,NA,NA,NA,NA,NA,0.5789573697448506,NA,space,NA,NA,black,NA,NA,NA,NA,NA,1,NA,NA,NA,449.7896999999992,NA,NA,NA,NA,NA,NA,NA,NA,NA,NA,NA,NA,NA,NA,NA,2024.1.1,NA,NA,NA,NA,NA,NA,NA,2024-07-05_11h56.51.906,59.52380952380566,NA,NA,4.735400000000368,NA,NA,NA,NA,NA,NA,6687d1694e15829843e4dbb4,2,TRUE,26
﻿Please look at the following plot and use the slider to estimate the level of relatedness.,NA,NA,NA,atypical_scatterplots_main_test_T,NA,NA,NA,66868c1df973f7ededaff065,NA,001,PARTICIPANT,22_spice_T_hi.png,atypical_scatterplots_main_T,NA,NA,NA,NA,NA,4.255400000000407,29,29,NA,NA,NA,449.7899000000004,NA,NA,NA,NA,NA,NA,NA,NA,NA,NA,NA,NA,NA,2024-07-05_11h57.00.002,0,22T,NA,NA,NA,NA,Win32,NA,all_plots/22_spice_T_hi.png,21,NA,NA,NA,NA,NA,NA,NA,NA,NA,NA,NA,0.5586177794922995,NA,space,NA,NA,black,NA,NA,NA,NA,NA,1,NA,NA,NA,456.6059000000003,NA,NA,NA,NA,NA,NA,NA,NA,NA,NA,NA,NA,NA,NA,NA,2024.1.1,NA,NA,NA,NA,NA,NA,NA,2024-07-05_11h56.51.906,59.52380952380566,NA,NA,5.80269999999922,NA,NA,NA,NA,NA,NA,6687d1694e15829843e4dbb4,2,TRUE,26
﻿Please look at the following plot and use the slider to estimate the level of relatedness.,NA,NA,NA,atypical_scatterplots_main_test_T,NA,NA,NA,66868c1df973f7ededaff065,NA,001,PARTICIPANT,8_spice_T_hi.png,atypical_scatterplots_main_T,NA,NA,NA,NA,NA,3.194500000000005,30,30,NA,NA,NA,456.60609999999963,NA,NA,NA,NA,NA,NA,NA,NA,NA,NA,NA,NA,NA,2024-07-05_11h57.00.002,0,8T,NA,NA,NA,NA,Win32,NA,all_plots/8_spice_T_hi.png,7,NA,NA,NA,NA,NA,NA,NA,NA,NA,NA,NA,0.5863535618106861,NA,space,NA,NA,black,NA,NA,NA,NA,NA,1,NA,NA,NA,462.3565,NA,NA,NA,NA,NA,NA,NA,NA,NA,NA,NA,NA,NA,NA,NA,2024.1.1,NA,NA,NA,NA,NA,NA,NA,2024-07-05_11h56.51.906,59.52380952380566,NA,NA,5.019299999998907,NA,NA,NA,NA,NA,NA,6687d1694e15829843e4dbb4,2,TRUE,26
﻿Please look at the following plot and use the slider to estimate the level of relatedness.,NA,NA,NA,atypical_scatterplots_main_test_T,NA,NA,NA,66868c1df973f7ededaff065,NA,001,PARTICIPANT,34_spice_T_hi.png,atypical_scatterplots_main_T,NA,NA,NA,NA,NA,4.307300000000794,31,31,NA,NA,NA,462.3574000000004,NA,NA,NA,NA,NA,NA,NA,NA,NA,NA,NA,NA,NA,2024-07-05_11h57.00.002,0,34T,NA,NA,NA,NA,Win32,NA,all_plots/34_spice_T_hi.png,33,NA,NA,NA,NA,NA,NA,NA,NA,NA,NA,NA,0.5808064177613094,NA,space,NA,NA,black,NA,NA,NA,NA,NA,1,NA,NA,NA,469.2276999999992,NA,NA,NA,NA,NA,NA,NA,NA,NA,NA,NA,NA,NA,NA,NA,2024.1.1,NA,NA,NA,NA,NA,NA,NA,2024-07-05_11h56.51.906,59.52380952380566,NA,NA,5.937400000000423,NA,NA,NA,NA,NA,NA,6687d1694e15829843e4dbb4,2,TRUE,26
﻿Please look at the following plot and use the slider to estimate the level of relatedness.,NA,NA,NA,atypical_scatterplots_main_test_T,NA,NA,NA,66868c1df973f7ededaff065,NA,001,PARTICIPANT,23_spice_T_hi.png,atypical_scatterplots_main_T,NA,NA,NA,NA,NA,3.663299999998912,32,32,NA,NA,NA,469.228,NA,NA,NA,NA,NA,NA,NA,NA,NA,NA,NA,NA,NA,2024-07-05_11h57.00.002,0,23T,NA,NA,NA,NA,Win32,NA,all_plots/23_spice_T_hi.png,22,NA,NA,NA,NA,NA,NA,NA,NA,NA,NA,NA,0.564164923541676,NA,space,NA,NA,black,NA,NA,NA,NA,NA,1,NA,NA,NA,475.4559000000004,NA,NA,NA,NA,NA,NA,NA,NA,NA,NA,NA,NA,NA,NA,NA,2024.1.1,NA,NA,NA,NA,NA,NA,NA,2024-07-05_11h56.51.906,59.52380952380566,NA,NA,5.4605999999996016,NA,NA,NA,NA,NA,NA,6687d1694e15829843e4dbb4,2,TRUE,26
﻿Please look at the following plot and use the slider to estimate the level of relatedness.,NA,NA,NA,atypical_scatterplots_main_test_T,NA,NA,NA,66868c1df973f7ededaff065,NA,001,PARTICIPANT,6_spice_T_hi.png,atypical_scatterplots_main_T,NA,NA,NA,NA,NA,6.266800000000785,33,33,NA,NA,NA,475.4561999999992,NA,NA,NA,NA,NA,NA,NA,NA,NA,NA,NA,NA,NA,2024-07-05_11h57.00.002,0,6T,NA,NA,NA,NA,Win32,NA,all_plots/6_spice_T_hi.png,5,NA,NA,NA,NA,NA,NA,NA,NA,NA,NA,NA,0.496674453690665,NA,space,NA,NA,black,NA,NA,NA,NA,NA,1,NA,NA,NA,484.28919999999925,NA,NA,NA,NA,NA,NA,NA,NA,NA,NA,NA,NA,NA,NA,NA,2024.1.1,NA,NA,NA,NA,NA,NA,NA,2024-07-05_11h56.51.906,59.52380952380566,NA,NA,7.521999999999991,NA,NA,NA,NA,NA,NA,6687d1694e15829843e4dbb4,2,TRUE,26
﻿Please look at the following plot and use the slider to estimate the level of relatedness.,NA,NA,NA,atypical_scatterplots_main_test_T,NA,NA,NA,66868c1df973f7ededaff065,NA,001,PARTICIPANT,20_spice_T_hi.png,atypical_scatterplots_main_T,NA,NA,NA,NA,NA,2.604599999999664,34,34,NA,NA,NA,484.2895999999996,NA,NA,NA,NA,NA,NA,NA,NA,NA,NA,NA,NA,NA,2024-07-05_11h57.00.002,0,20T,NA,NA,NA,NA,Win32,NA,all_plots/20_spice_T_hi.png,19,NA,NA,NA,NA,NA,NA,NA,NA,NA,NA,NA,0.5373536341957671,NA,space,NA,NA,black,NA,NA,NA,NA,NA,1,NA,NA,NA,489.456,NA,NA,NA,NA,NA,NA,NA,NA,NA,NA,NA,NA,NA,NA,NA,2024.1.1,NA,NA,NA,NA,NA,NA,NA,2024-07-05_11h56.51.906,59.52380952380566,NA,NA,4.502699999999265,NA,NA,NA,NA,NA,NA,6687d1694e15829843e4dbb4,2,TRUE,26
﻿Please look at the following plot and use the slider to estimate the level of relatedness.,NA,NA,NA,atypical_scatterplots_main_test_T,NA,NA,NA,66868c1df973f7ededaff065,NA,001,PARTICIPANT,36_spice_T_hi.png,atypical_scatterplots_main_T,NA,NA,NA,NA,NA,4.571900000000369,35,35,NA,NA,NA,489.4561999999992,NA,NA,NA,NA,NA,NA,NA,NA,NA,NA,NA,NA,NA,2024-07-05_11h57.00.002,0,36T,NA,NA,NA,NA,Win32,NA,all_plots/36_spice_T_hi.png,35,NA,NA,NA,NA,NA,NA,NA,NA,NA,NA,NA,0.6242592013268518,NA,space,NA,NA,black,NA,NA,NA,NA,NA,1,NA,NA,NA,496.5894000000003,NA,NA,NA,NA,NA,NA,NA,NA,NA,NA,NA,NA,NA,NA,NA,2024.1.1,NA,NA,NA,NA,NA,NA,NA,2024-07-05_11h56.51.906,59.52380952380566,NA,NA,6.386000000000024,NA,NA,NA,NA,NA,NA,6687d1694e15829843e4dbb4,2,TRUE,26
﻿Please look at the following plot and use the slider to estimate the level of relatedness.,NA,NA,NA,atypical_scatterplots_main_test_T,NA,NA,NA,66868c1df973f7ededaff065,NA,001,PARTICIPANT,9_spice_T_hi.png,atypical_scatterplots_main_T,NA,NA,NA,NA,NA,3.670500000000004,36,36,NA,NA,NA,496.58990000000034,NA,NA,NA,NA,NA,NA,NA,NA,NA,NA,NA,NA,NA,2024-07-05_11h57.00.002,0,9T,NA,NA,NA,NA,Win32,NA,all_plots/9_spice_T_hi.png,8,NA,NA,NA,NA,NA,NA,NA,NA,NA,NA,NA,0.5882026098271449,NA,space,NA,NA,black,NA,NA,NA,NA,NA,1,NA,NA,NA,502.8395,NA,NA,NA,NA,NA,NA,NA,NA,NA,NA,NA,NA,NA,NA,NA,2024.1.1,NA,NA,NA,NA,NA,NA,NA,2024-07-05_11h56.51.906,59.52380952380566,NA,NA,5.569599999999639,NA,NA,NA,NA,NA,NA,6687d1694e15829843e4dbb4,2,TRUE,26
﻿Please look at the following plot and use the slider to estimate the level of relatedness.,NA,NA,NA,atypical_scatterplots_main_test_T,NA,NA,NA,66868c1df973f7ededaff065,NA,001,PARTICIPANT,39_spice_T_hi.png,atypical_scatterplots_main_T,NA,NA,NA,NA,NA,4.121599999999717,37,37,NA,NA,NA,502.83969999999925,NA,NA,NA,NA,NA,NA,NA,NA,NA,NA,NA,NA,NA,2024-07-05_11h57.00.002,0,39T,NA,NA,NA,NA,Win32,NA,all_plots/39_spice_T_hi.png,38,NA,NA,NA,NA,NA,NA,NA,NA,NA,NA,NA,0.5882026098271449,NA,space,NA,NA,black,NA,NA,NA,NA,NA,1,NA,NA,NA,509.52240000000035,NA,NA,NA,NA,NA,NA,NA,NA,NA,NA,NA,NA,NA,NA,NA,2024.1.1,NA,NA,NA,NA,NA,NA,NA,2024-07-05_11h56.51.906,59.52380952380566,NA,NA,6.003599999999665,NA,NA,NA,NA,NA,NA,6687d1694e15829843e4dbb4,2,TRUE,26
﻿Please IGNORE the plot and set the slider to 1.,NA,NA,NA,atypical_scatterplots_main_test_T,NA,NA,NA,66868c1df973f7ededaff065,NA,001,PARTICIPANT,3_spice_T_hi.png,atypical_scatterplots_main_T,NA,NA,NA,NA,NA,2.2765999999996893,38,38,NA,NA,NA,509.5228000000007,NA,NA,NA,NA,NA,NA,NA,NA,NA,NA,NA,NA,NA,2024-07-05_11h57.00.002,0,48T,NA,NA,NA,NA,Win32,NA,all_plots/3_spice_T_hi.png,47,NA,NA,NA,NA,NA,NA,NA,NA,NA,NA,NA,0.996843462894626,NA,space,NA,NA,red,NA,NA,NA,NA,NA,1,NA,NA,NA,514.3890999999996,NA,NA,NA,NA,NA,NA,NA,NA,NA,NA,NA,NA,NA,NA,NA,2024.1.1,NA,NA,NA,NA,NA,NA,NA,2024-07-05_11h56.51.906,59.52380952380566,NA,NA,3.7414999999999736,NA,NA,NA,NA,NA,NA,6687d1694e15829843e4dbb4,2,TRUE,26
﻿Please look at the following plot and use the slider to estimate the level of relatedness.,NA,NA,NA,atypical_scatterplots_main_test_T,NA,NA,NA,66868c1df973f7ededaff065,NA,001,PARTICIPANT,26_spice_T_hi.png,atypical_scatterplots_main_T,NA,NA,NA,NA,NA,3.113299999998958,39,39,NA,NA,NA,514.3893000000008,NA,NA,NA,NA,NA,NA,NA,NA,NA,NA,NA,NA,NA,2024-07-05_11h57.00.002,0,26T,NA,NA,NA,NA,Win32,NA,all_plots/26_spice_T_hi.png,25,NA,NA,NA,NA,NA,NA,NA,NA,NA,NA,NA,0.521636695020115,NA,space,NA,NA,black,NA,NA,NA,NA,NA,1,NA,NA,NA,520.0725999999996,NA,NA,NA,NA,NA,NA,NA,NA,NA,NA,NA,NA,NA,NA,NA,2024.1.1,NA,NA,NA,NA,NA,NA,NA,2024-07-05_11h56.51.906,59.52380952380566,NA,NA,4.97080000000085,NA,NA,NA,NA,NA,NA,6687d1694e15829843e4dbb4,2,TRUE,26
﻿Please look at the following plot and use the slider to estimate the level of relatedness.,NA,NA,NA,atypical_scatterplots_main_test_T,NA,NA,NA,66868c1df973f7ededaff065,NA,001,PARTICIPANT,18_spice_T_hi.png,atypical_scatterplots_main_T,NA,NA,NA,NA,NA,3.30709999999965,40,40,NA,NA,NA,520.0726999999993,NA,NA,NA,NA,NA,NA,NA,NA,NA,NA,NA,NA,NA,2024-07-05_11h57.00.002,0,18T,NA,NA,NA,NA,Win32,NA,all_plots/18_spice_T_hi.png,17,NA,NA,NA,NA,NA,NA,NA,NA,NA,NA,NA,0.564164923541676,NA,space,NA,NA,black,NA,NA,NA,NA,NA,1,NA,NA,NA,525.9393000000008,NA,NA,NA,NA,NA,NA,NA,NA,NA,NA,NA,NA,NA,NA,NA,2024.1.1,NA,NA,NA,NA,NA,NA,NA,2024-07-05_11h56.51.906,59.52380952380566,NA,NA,5.171200000001136,NA,NA,NA,NA,NA,NA,6687d1694e15829843e4dbb4,2,TRUE,26
﻿Please look at the following plot and use the slider to estimate the level of relatedness.,NA,NA,NA,atypical_scatterplots_main_test_T,NA,NA,NA,66868c1df973f7ededaff065,NA,001,PARTICIPANT,19_spice_T_hi.png,atypical_scatterplots_main_T,NA,NA,NA,NA,NA,3.069100000001413,41,41,NA,NA,NA,525.9395000000001,NA,NA,NA,NA,NA,NA,NA,NA,NA,NA,NA,NA,NA,2024-07-05_11h57.00.002,0,19T,NA,NA,NA,NA,Win32,NA,all_plots/19_spice_T_hi.png,18,NA,NA,NA,NA,NA,NA,NA,NA,NA,NA,NA,0.5456743192340804,NA,space,NA,NA,black,NA,NA,NA,NA,NA,1,NA,NA,NA,531.5725,NA,NA,NA,NA,NA,NA,NA,NA,NA,NA,NA,NA,NA,NA,NA,2024.1.1,NA,NA,NA,NA,NA,NA,NA,2024-07-05_11h56.51.906,59.52380952380566,NA,NA,4.892599999999675,NA,NA,NA,NA,NA,NA,6687d1694e15829843e4dbb4,2,TRUE,26
﻿Please look at the following plot and use the slider to estimate the level of relatedness.,NA,NA,NA,atypical_scatterplots_main_test_T,NA,NA,NA,66868c1df973f7ededaff065,NA,001,PARTICIPANT,2_spice_T_hi.png,atypical_scatterplots_main_T,NA,NA,NA,NA,NA,3.4839000000002898,42,42,NA,NA,NA,531.5726999999993,NA,NA,NA,NA,NA,NA,NA,NA,NA,NA,NA,NA,NA,2024-07-05_11h57.00.002,0,2T,NA,NA,NA,NA,Win32,NA,all_plots/2_spice_T_hi.png,1,NA,NA,NA,NA,NA,NA,NA,NA,NA,NA,NA,0.5484479843660238,NA,space,NA,NA,black,NA,NA,NA,NA,NA,1,NA,NA,NA,537.6225000000001,NA,NA,NA,NA,NA,NA,NA,NA,NA,NA,NA,NA,NA,NA,NA,2024.1.1,NA,NA,NA,NA,NA,NA,NA,2024-07-05_11h56.51.906,59.52380952380566,NA,NA,5.315799999998831,NA,NA,NA,NA,NA,NA,6687d1694e15829843e4dbb4,2,TRUE,26
﻿Please look at the following plot and use the slider to estimate the level of relatedness.,NA,NA,NA,atypical_scatterplots_main_test_T,NA,NA,NA,66868c1df973f7ededaff065,NA,001,PARTICIPANT,41_spice_T_hi.png,atypical_scatterplots_main_T,NA,NA,NA,NA,NA,5.259700000001089,43,43,NA,NA,NA,537.6228000000008,NA,NA,NA,NA,NA,NA,NA,NA,NA,NA,NA,NA,NA,2024-07-05_11h57.00.002,0,41T,NA,NA,NA,NA,Win32,NA,all_plots/41_spice_T_hi.png,40,NA,NA,NA,NA,NA,NA,NA,NA,NA,NA,NA,0.6261082493433107,NA,space,NA,NA,black,NA,NA,NA,NA,NA,1,NA,NA,NA,545.4559000000004,NA,NA,NA,NA,NA,NA,NA,NA,NA,NA,NA,NA,NA,NA,NA,2024.1.1,NA,NA,NA,NA,NA,NA,NA,2024-07-05_11h56.51.906,59.52380952380566,NA,NA,7.105099999999652,NA,NA,NA,NA,NA,NA,6687d1694e15829843e4dbb4,2,TRUE,26
﻿Please look at the following plot and use the slider to estimate the level of relatedness.,NA,NA,NA,atypical_scatterplots_main_test_T,NA,NA,NA,66868c1df973f7ededaff065,NA,001,PARTICIPANT,17_spice_T_hi.png,atypical_scatterplots_main_T,NA,NA,NA,NA,NA,2.881999999999948,44,44,NA,NA,NA,545.4560999999997,NA,NA,NA,NA,NA,NA,NA,NA,NA,NA,NA,NA,NA,2024-07-05_11h57.00.002,0,17T,NA,NA,NA,NA,Win32,NA,all_plots/17_spice_T_hi.png,16,NA,NA,NA,NA,NA,NA,NA,NA,NA,NA,NA,0.5669385266021161,NA,space,NA,NA,black,NA,NA,NA,NA,NA,1,NA,NA,NA,550.9060999999997,NA,NA,NA,NA,NA,NA,NA,NA,NA,NA,NA,NA,NA,NA,NA,2024.1.1,NA,NA,NA,NA,NA,NA,NA,2024-07-05_11h56.51.906,59.52380952380566,NA,NA,4.760399999998413,NA,NA,NA,NA,NA,NA,6687d1694e15829843e4dbb4,2,TRUE,26
﻿Please look at the following plot and use the slider to estimate the level of relatedness.,NA,NA,NA,atypical_scatterplots_main_test_T,NA,NA,NA,66868c1df973f7ededaff065,NA,001,PARTICIPANT,42_spice_T_hi.png,atypical_scatterplots_main_T,NA,NA,NA,NA,NA,3.976600000001554,45,45,NA,NA,NA,550.9063000000008,NA,NA,NA,NA,NA,NA,NA,NA,NA,NA,NA,NA,NA,2024-07-05_11h57.00.002,0,42T,NA,NA,NA,NA,Win32,NA,all_plots/42_spice_T_hi.png,41,NA,NA,NA,NA,NA,NA,NA,NA,NA,NA,NA,0.5854290688382083,NA,space,NA,NA,black,NA,NA,NA,NA,NA,1,NA,NA,NA,557.4559000000004,NA,NA,NA,NA,NA,NA,NA,NA,NA,NA,NA,NA,NA,NA,NA,2024.1.1,NA,NA,NA,NA,NA,NA,NA,2024-07-05_11h56.51.906,59.52380952380566,NA,NA,5.754099999999653,NA,NA,NA,NA,NA,NA,6687d1694e15829843e4dbb4,2,TRUE,26
﻿Please look at the following plot and use the slider to estimate the level of relatedness.,NA,NA,NA,atypical_scatterplots_main_test_T,NA,NA,NA,66868c1df973f7ededaff065,NA,001,PARTICIPANT,5_spice_T_hi.png,atypical_scatterplots_main_T,NA,NA,NA,NA,NA,4.84699999999998,46,46,NA,NA,NA,557.4560999999997,NA,NA,NA,NA,NA,NA,NA,NA,NA,NA,NA,NA,NA,2024-07-05_11h57.00.002,0,5T,NA,NA,NA,NA,Win32,NA,all_plots/5_spice_T_hi.png,4,NA,NA,NA,NA,NA,NA,NA,NA,NA,NA,NA,0.5613913825527395,NA,space,NA,NA,black,NA,NA,NA,NA,NA,1,NA,NA,NA,564.8725999999997,NA,NA,NA,NA,NA,NA,NA,NA,NA,NA,NA,NA,NA,NA,NA,2024.1.1,NA,NA,NA,NA,NA,NA,NA,2024-07-05_11h56.51.906,59.52380952380566,NA,NA,6.648100000001477,NA,NA,NA,NA,NA,NA,6687d1694e15829843e4dbb4,2,TRUE,26
﻿Please look at the following plot and use the slider to estimate the level of relatedness.,NA,NA,NA,atypical_scatterplots_main_test_T,NA,NA,NA,66868c1df973f7ededaff065,NA,001,PARTICIPANT,21_spice_T_hi.png,atypical_scatterplots_main_T,NA,NA,NA,NA,NA,4.059099999999603,47,47,NA,NA,NA,564.873,NA,NA,NA,NA,NA,NA,NA,NA,NA,NA,NA,NA,NA,2024-07-05_11h57.00.002,0,21T,NA,NA,NA,NA,Win32,NA,all_plots/21_spice_T_hi.png,20,NA,NA,NA,NA,NA,NA,NA,NA,NA,NA,NA,0.5530706354429228,NA,space,NA,NA,black,NA,NA,NA,NA,NA,1,NA,NA,NA,571.5059000000005,NA,NA,NA,NA,NA,NA,NA,NA,NA,NA,NA,NA,NA,NA,NA,2024.1.1,NA,NA,NA,NA,NA,NA,NA,2024-07-05_11h56.51.906,59.52380952380566,NA,NA,5.519300000000726,NA,NA,NA,NA,NA,NA,6687d1694e15829843e4dbb4,2,TRUE,26
﻿Please look at the following plot and use the slider to estimate the level of relatedness.,NA,NA,NA,atypical_scatterplots_main_test_T,NA,NA,NA,66868c1df973f7ededaff065,NA,001,PARTICIPANT,40_spice_T_hi.png,atypical_scatterplots_main_T,NA,NA,NA,NA,NA,4.125399999998535,48,48,NA,NA,NA,571.5060999999997,NA,NA,NA,NA,NA,NA,NA,NA,NA,NA,NA,NA,NA,2024-07-05_11h57.00.002,0,40T,NA,NA,NA,NA,Win32,NA,all_plots/40_spice_T_hi.png,39,NA,NA,NA,NA,NA,NA,NA,NA,NA,NA,NA,0.6307309004202094,NA,space,NA,NA,black,NA,NA,NA,NA,NA,1,NA,NA,NA,578.1891999999993,NA,NA,NA,NA,NA,NA,NA,NA,NA,NA,NA,NA,NA,NA,NA,2024.1.1,NA,NA,NA,NA,NA,NA,NA,2024-07-05_11h56.51.906,59.52380952380566,NA,NA,6.021900000000414,NA,NA,NA,NA,NA,NA,6687d1694e15829843e4dbb4,2,TRUE,26
﻿,NA,NA,NA,atypical_scatterplots_main_test_T,NA,NA,NA,66868c1df973f7ededaff065,NA,001,PARTICIPANT,NA,atypical_scatterplots_main_T,NA,NA,NA,NA,NA,NA,NA,NA,NA,NA,NA,NA,NA,NA,NA,NA,NA,NA,NA,NA,NA,space,NA,NA,NA,2024-07-05_11h57.00.002,NA,NA,NA,NA,NA,4,Win32,NA,NA,NA,NA,NA,NA,NA,NA,NA,NA,NA,NA,NA,NA,NA,NA,NA,NA,NA,NA,NA,NA,578.1898000000008,NA,NA,NA,NA,585.1894000000004,NA,NA,NA,NA,NA,NA,NA,NA,NA,NA,NA,NA,NA,NA,NA,NA,NA,2024.1.1,NA,NA,NA,NA,NA,NA,2.501200000001063,2024-07-05_11h56.51.906,59.52380952380566,NA,NA,NA,NA,NA,NA,NA,NA,4.474900000000389,6687d1694e15829843e4dbb4,2,TRUE,26
﻿,NA,NA,NA,atypical_scatterplots_main_test_T,NA,NA,NA,66868c1df973f7ededaff065,NA,001,PARTICIPANT,NA,atypical_scatterplots_main_T,NA,NA,NA,585.1895000000001,NA,NA,NA,NA,NA,NA,NA,NA,NA,NA,NA,NA,NA,NA,NA,NA,NA,NA,NA,NA,NA,2024-07-05_11h57.00.002,NA,NA,NA,NA,NA,NA,Win32,NA,NA,NA,NA,NA,NA,NA,NA,NA,NA,NA,NA,NA,NA,NA,NA,NA,590.0395000000001,NA,NA,NA,NA,NA,NA,NA,NA,NA,NA,NA,NA,NA,NA,NA,NA,NA,NA,NA,NA,NA,NA,NA,NA,NA,NA,NA,2024.1.1,NA,NA,NA,NA,NA,NA,NA,2024-07-05_11h56.51.906,59.52380952380566,NA,NA,NA,NA,NA,NA,NA,NA,NA,6687d1694e15829843e4dbb4,2,TRUE,26
﻿,NA,NA,NA,atypical_scatterplots_main_test_T,NA,NA,NA,66868c1df973f7ededaff065,NA,001,PARTICIPANT,NA,atypical_scatterplots_main_T,NA,NA,NA,NA,NA,NA,NA,NA,NA,NA,NA,NA,NA,NA,NA,NA,NA,NA,NA,NA,NA,NA,NA,NA,NA,2024-07-05_11h57.00.002,NA,NA,NA,NA,NA,NA,Win32,NA,NA,NA,NA,NA,NA,NA,NA,NA,NA,NA,NA,NA,NA,NA,NA,NA,NA,NA,NA,NA,NA,NA,NA,NA,NA,NA,NA,NA,NA,NA,NA,NA,NA,NA,NA,NA,NA,NA,NA,NA,NA,NA,NA,NA,2024.1.1,NA,NA,NA,NA,NA,NA,NA,2024-07-05_11h56.51.906,59.52380952380566,NA,NA,NA,NA,NA,NA,NA,NA,NA,6687d1694e15829843e4dbb4,2,TRUE,26
﻿,NA,NA,NA,atypical_scatterplots_main_test_T,NA,NA,NA,66868c1df973f7ededaff065,NA,001,PARTICIPANT,NA,atypical_scatterplots_main_T,597.3730999999997,NA,599.1238000000008,NA,NA,NA,NA,NA,NA,NA,NA,NA,NA,NA,NA,NA,NA,NA,NA,NA,NA,NA,NA,NA,NA,2024-07-05_11h57.00.002,NA,NA,NA,NA,NA,NA,Win32,NA,NA,NA,NA,NA,NA,NA,NA,NA,NA,NA,NA,NA,NA,NA,NA,NA,NA,NA,NA,NA,NA,NA,NA,NA,NA,NA,NA,NA,NA,NA,NA,NA,NA,NA,NA,NA,NA,NA,NA,NA,NA,NA,NA,NA,2024.1.1,NA,NA,NA,NA,NA,NA,NA,2024-07-05_11h56.51.906,59.52380952380566,NA,NA,NA,NA,NA,NA,NA,NA,NA,6687d1694e15829843e4dbb4,2,TRUE,26
﻿,NA,NA,NA,atypical_scatterplots_main_test_T,NA,NA,NA,66868c1df973f7ededaff065,NA,001,PARTICIPANT,NA,atypical_scatterplots_main_T,NA,0,NA,NA,NA,NA,NA,NA,NA,NA,NA,NA,NA,NA,NA,NA,NA,NA,NA,NA,NA,NA,NA,NA,NA,2024-07-05_12h23.12.417,NA,NA,NA,NA,NA,NA,Win32,NA,NA,NA,NA,NA,NA,NA,NA,NA,NA,NA,NA,NA,NA,NA,NA,NA,NA,NA,NA,NA,NA,NA,NA,NA,NA,NA,NA,NA,NA,NA,NA,NA,NA,NA,NA,NA,NA,NA,NA,NA,NA,NA,NA,NA,2024.1.1,NA,NA,NA,NA,NA,NA,NA,2024-07-05_12h23.06.222,59.95203836930351,NA,NA,NA,NA,NA,NA,NA,3.562000000000001,NA,6687d791b4c592166f721382,2,TRUE,8
﻿,NA,0,NA,atypical_scatterplots_main_test_T,NA,NA,NA,66868c1df973f7ededaff065,NA,001,PARTICIPANT,NA,atypical_scatterplots_main_T,NA,NA,NA,NA,NA,NA,NA,NA,NA,NA,21.863,NA,16.557000000000002,NA,NA,NA,NA,NA,NA,NA,NA,NA,0,"1 of 6
I confirm that I have read the information sheet (Version 6, 01/07/2024) for this study and have had the opportunity to consider the information and ask questions and had these answered satisfactorily.",NA,2024-07-05_12h23.12.417,NA,NA,NA,NA,NA,NA,Win32,NA,NA,NA,NA,NA,NA,y,NA,4.2890000000000015,NA,NA,NA,NA,NA,NA,NA,NA,NA,NA,NA,NA,0,NA,NA,NA,NA,NA,NA,NA,NA,NA,NA,NA,NA,NA,NA,NA,NA,NA,NA,NA,NA,NA,NA,NA,2024.1.1,0,1 of 6,NA,NA,NA,NA,NA,2024-07-05_12h23.06.222,59.95203836930351,NA,NA,NA,NA,NA,NA,1,NA,NA,6687d791b4c592166f721382,2,TRUE,8
﻿,NA,1,NA,atypical_scatterplots_main_test_T,NA,NA,NA,66868c1df973f7ededaff065,NA,001,PARTICIPANT,NA,atypical_scatterplots_main_T,NA,NA,NA,NA,NA,NA,NA,NA,NA,NA,26.308999999999997,NA,21.863,NA,NA,NA,NA,NA,NA,NA,NA,NA,1,"2 of 6
I understand that my participation in the study is voluntary and that I am free to withdraw at any time without giving a reason, and without detriment to myself, by pressing the ‘Escape’ key to quit the experiment, but I will not receive payment for this study. I understand that it will not be possible to remove my data from the project once it has been anonymised and forms part of the data set. 
I agree to take part on this basis. 
",NA,2024-07-05_12h23.12.417,NA,NA,NA,NA,NA,NA,Win32,NA,NA,NA,NA,NA,NA,y,NA,3.4140000000000015,NA,NA,NA,NA,NA,NA,NA,NA,NA,NA,NA,NA,1,NA,NA,NA,NA,NA,NA,NA,NA,NA,NA,NA,NA,NA,NA,NA,NA,NA,NA,NA,NA,NA,NA,NA,2024.1.1,0,2 of 6,NA,NA,NA,NA,NA,2024-07-05_12h23.06.222,59.95203836930351,NA,NA,NA,NA,NA,NA,1,NA,NA,6687d791b4c592166f721382,2,TRUE,8
﻿,NA,2,NA,atypical_scatterplots_main_test_T,NA,NA,NA,66868c1df973f7ededaff065,NA,001,PARTICIPANT,NA,atypical_scatterplots_main_T,NA,NA,NA,NA,NA,NA,NA,NA,NA,NA,28.524,NA,26.311,NA,NA,NA,NA,NA,NA,NA,NA,NA,2,"3 of 6
I agree that any data collected may be published in anonymous form in academic books, reports, conference presentations or journals. 
I agree to take part on this basis. 
",NA,2024-07-05_12h23.12.417,NA,NA,NA,NA,NA,NA,Win32,NA,NA,NA,NA,NA,NA,y,NA,1.1829999999999998,NA,NA,NA,NA,NA,NA,NA,NA,NA,NA,NA,NA,2,NA,NA,NA,NA,NA,NA,NA,NA,NA,NA,NA,NA,NA,NA,NA,NA,NA,NA,NA,NA,NA,NA,NA,2024.1.1,0,3 of 6,NA,NA,NA,NA,NA,2024-07-05_12h23.06.222,59.95203836930351,NA,NA,NA,NA,NA,NA,1,NA,NA,6687d791b4c592166f721382,2,TRUE,8
﻿,NA,3,NA,atypical_scatterplots_main_test_T,NA,NA,NA,66868c1df973f7ededaff065,NA,001,PARTICIPANT,NA,atypical_scatterplots_main_T,NA,NA,NA,NA,NA,NA,NA,NA,NA,NA,30.189,NA,28.524,NA,NA,NA,NA,NA,NA,NA,NA,NA,3,"4 of 6
I understand that a fully anonymised dataset will be deposited in an open data repository at the end of the project.
I agree to take part on this basis.
",NA,2024-07-05_12h23.12.417,NA,NA,NA,NA,NA,NA,Win32,NA,NA,NA,NA,NA,NA,y,NA,0.6319999999999979,NA,NA,NA,NA,NA,NA,NA,NA,NA,NA,NA,NA,3,NA,NA,NA,NA,NA,NA,NA,NA,NA,NA,NA,NA,NA,NA,NA,NA,NA,NA,NA,NA,NA,NA,NA,2024.1.1,0,4 of 6,NA,NA,NA,NA,NA,2024-07-05_12h23.06.222,59.95203836930351,NA,NA,NA,NA,NA,NA,1,NA,NA,6687d791b4c592166f721382,2,TRUE,8
﻿,NA,4,NA,atypical_scatterplots_main_test_T,NA,NA,NA,66868c1df973f7ededaff065,NA,001,PARTICIPANT,NA,atypical_scatterplots_main_T,NA,NA,NA,NA,NA,NA,NA,NA,NA,NA,32.271,NA,30.19,NA,NA,NA,NA,NA,NA,NA,NA,NA,4,"5 of 6
I understand that data collected during the study may be looked at by individuals from The University of Manchester or regulatory authorities, where it is relevant to my taking part in this research. I give permission for these individuals to have access to my data.
",NA,2024-07-05_12h23.12.417,NA,NA,NA,NA,NA,NA,Win32,NA,NA,NA,NA,NA,NA,y,NA,1.0519999999999996,NA,NA,NA,NA,NA,NA,NA,NA,NA,NA,NA,NA,4,NA,NA,NA,NA,NA,NA,NA,NA,NA,NA,NA,NA,NA,NA,NA,NA,NA,NA,NA,NA,NA,NA,NA,2024.1.1,0,5 of 6,NA,NA,NA,NA,NA,2024-07-05_12h23.06.222,59.95203836930351,NA,NA,NA,NA,NA,NA,1,NA,NA,6687d791b4c592166f721382,2,TRUE,8
﻿,NA,5,NA,atypical_scatterplots_main_test_T,NA,NA,NA,66868c1df973f7ededaff065,NA,001,PARTICIPANT,NA,atypical_scatterplots_main_T,NA,NA,NA,NA,NA,NA,NA,NA,NA,NA,33.37,NA,32.271,NA,NA,NA,NA,NA,NA,NA,NA,NA,5,"6 of 6
I agree to take part in this study.
",NA,2024-07-05_12h23.12.417,NA,NA,NA,NA,NA,NA,Win32,NA,NA,NA,NA,NA,NA,y,NA,0.06700000000000017,NA,NA,NA,NA,NA,NA,NA,NA,NA,NA,NA,NA,5,NA,NA,NA,NA,NA,NA,NA,NA,NA,NA,NA,NA,NA,NA,NA,NA,NA,NA,NA,NA,NA,NA,NA,2024.1.1,0,6 of 6,NA,NA,NA,NA,NA,2024-07-05_12h23.06.222,59.95203836930351,NA,NA,NA,NA,NA,NA,1,NA,NA,6687d791b4c592166f721382,2,TRUE,8
﻿,NA,NA,NA,atypical_scatterplots_main_test_T,33.37,NA,NA,66868c1df973f7ededaff065,NA,001,PARTICIPANT,NA,atypical_scatterplots_main_T,NA,NA,NA,NA,NA,NA,NA,NA,NA,NA,NA,NA,NA,NA,NA,NA,NA,NA,NA,NA,NA,NA,NA,NA,NA,2024-07-05_12h23.12.417,NA,NA,NA,NA,NA,NA,Win32,NA,NA,NA,NA,NA,NA,NA,NA,NA,NA,NA,NA,NA,NA,NA,NA,NA,NA,NA,NA,NA,NA,NA,NA,NA,NA,NA,NA,NA,NA,NA,NA,NA,NA,NA,NA,NA,NA,37.767,NA,NA,NA,NA,NA,NA,2024.1.1,NA,NA,NA,NA,NA,NA,NA,2024-07-05_12h23.06.222,59.95203836930351,NA,NA,NA,NA,NA,NA,NA,NA,NA,6687d791b4c592166f721382,2,TRUE,8
﻿,NA,NA,NA,atypical_scatterplots_main_test_T,NA,NA,NA,66868c1df973f7ededaff065,NA,001,PARTICIPANT,NA,atypical_scatterplots_main_T,NA,NA,NA,NA,NA,NA,NA,NA,NA,NA,NA,NA,NA,NA,NA,NA,NA,NA,NA,NA,NA,NA,NA,NA,NA,2024-07-05_12h23.12.417,NA,NA,NA,NA,NA,NA,Win32,Female,NA,NA,37.767,NA,NA,NA,NA,NA,NA,NA,NA,NA,NA,NA,NA,NA,NA,NA,NA,NA,NA,NA,NA,NA,NA,NA,NA,NA,NA,NA,NA,NA,NA,NA,NA,NA,NA,NA,NA,NA,NA,NA,NA,NA,2024.1.1,NA,NA,NA,31,NA,NA,NA,2024-07-05_12h23.06.222,59.95203836930351,NA,NA,NA,NA,41.681,NA,NA,NA,NA,6687d791b4c592166f721382,2,TRUE,8
﻿,NA,NA,NA,atypical_scatterplots_main_test_T,NA,NA,NA,66868c1df973f7ededaff065,NA,001,PARTICIPANT,NA,atypical_scatterplots_main_T,NA,NA,NA,NA,NA,NA,NA,NA,NA,NA,NA,NA,NA,NA,NA,55.651,41.681,NA,4,NA,NA,NA,NA,NA,NA,2024-07-05_12h23.12.417,NA,NA,NA,NA,5,NA,Win32,NA,NA,NA,NA,NA,NA,NA,NA,NA,NA,NA,NA,NA,NA,NA,NA,NA,NA,NA,NA,4,NA,NA,NA,NA,NA,NA,NA,NA,NA,NA,NA,NA,NA,NA,NA,NA,NA,NA,NA,NA,NA,NA,NA,NA,2024.1.1,NA,NA,NA,NA,NA,4,NA,2024-07-05_12h23.06.222,59.95203836930351,NA,NA,NA,4,NA,NA,NA,NA,NA,6687d791b4c592166f721382,2,TRUE,8
﻿,NA,NA,2,atypical_scatterplots_main_test_T,NA,NA,NA,66868c1df973f7ededaff065,NA,001,PARTICIPANT,NA,atypical_scatterplots_main_T,NA,NA,NA,NA,NA,NA,NA,NA,NA,NA,NA,NA,NA,NA,NA,NA,NA,4,NA,NA,NA,NA,NA,NA,NA,2024-07-05_12h23.12.417,NA,NA,NA,NA,NA,NA,Win32,NA,NA,NA,NA,2,NA,NA,NA,NA,NA,NA,NA,NA,NA,NA,NA,NA,NA,74.9,NA,NA,NA,NA,NA,NA,NA,NA,NA,NA,NA,NA,NA,NA,NA,55.651,NA,NA,NA,NA,NA,NA,NA,NA,4,NA,2024.1.1,NA,NA,NA,NA,NA,NA,NA,2024-07-05_12h23.06.222,59.95203836930351,NA,NA,NA,NA,NA,NA,NA,NA,NA,6687d791b4c592166f721382,2,TRUE,8
﻿,2,NA,NA,atypical_scatterplots_main_test_T,NA,NA,NA,66868c1df973f7ededaff065,NA,001,PARTICIPANT,NA,atypical_scatterplots_main_T,NA,NA,NA,NA,NA,NA,NA,NA,NA,NA,NA,NA,NA,NA,NA,NA,NA,NA,NA,NA,NA,NA,NA,NA,NA,2024-07-05_12h23.12.417,NA,NA,NA,NA,NA,NA,Win32,NA,NA,NA,NA,NA,4,NA,NA,NA,86.62299999999999,NA,NA,NA,NA,NA,NA,NA,NA,NA,NA,NA,NA,NA,NA,NA,NA,NA,NA,NA,NA,NA,NA,74.9,NA,NA,NA,4,NA,NA,NA,NA,NA,4,NA,NA,2024.1.1,NA,NA,NA,NA,NA,NA,NA,2024-07-05_12h23.06.222,59.95203836930351,NA,NA,NA,NA,NA,NA,NA,NA,NA,6687d791b4c592166f721382,2,TRUE,8
﻿,NA,NA,NA,atypical_scatterplots_main_test_T,NA,NA,NA,66868c1df973f7ededaff065,NA,001,PARTICIPANT,NA,atypical_scatterplots_main_T,NA,NA,NA,NA,NA,NA,NA,NA,NA,NA,NA,NA,NA,NA,NA,NA,NA,NA,NA,NA,NA,NA,NA,NA,NA,2024-07-05_12h23.12.417,NA,NA,NA,NA,NA,NA,Win32,NA,NA,NA,NA,NA,NA,NA,NA,NA,NA,5,99.21099999999998,NA,NA,NA,NA,NA,NA,NA,NA,NA,NA,NA,NA,NA,NA,NA,NA,2,NA,86.62299999999999,NA,NA,NA,NA,NA,NA,NA,NA,NA,NA,NA,NA,NA,4,2024.1.1,NA,NA,2,NA,NA,NA,NA,2024-07-05_12h23.06.222,59.95203836930351,NA,NA,NA,NA,NA,NA,NA,NA,NA,6687d791b4c592166f721382,2,TRUE,8
﻿,NA,NA,NA,atypical_scatterplots_main_test_T,NA,NA,NA,66868c1df973f7ededaff065,NA,001,PARTICIPANT,NA,atypical_scatterplots_main_T,NA,NA,NA,NA,NA,NA,NA,NA,NA,NA,NA,NA,NA,NA,NA,NA,NA,NA,NA,99.21599999999998,NA,NA,NA,NA,Slide 1 of 7,2024-07-05_12h23.12.417,NA,NA,NA,NA,NA,NA,Win32,NA,NA,NA,NA,NA,NA,NA,NA,NA,NA,NA,NA,0,0,NA,NA,NA,NA,NA,NA,NA,NA,NA,NA,1,NA,0,NA,NA,NA,NA,NA,NA,NA,NA,NA,NA,NA,NA,NA,103.759,0,NA,NA,NA,2024.1.1,NA,NA,NA,NA,This experiment is about your beliefs about relatedness as depicted by scatterplots.,NA,NA,2024-07-05_12h23.06.222,59.95203836930351,NA,NA,NA,NA,NA,NA,NA,NA,NA,6687d791b4c592166f721382,2,TRUE,8
﻿,NA,NA,NA,atypical_scatterplots_main_test_T,NA,NA,NA,66868c1df973f7ededaff065,NA,001,PARTICIPANT,NA,atypical_scatterplots_main_T,NA,NA,NA,NA,NA,NA,NA,NA,NA,NA,NA,NA,NA,NA,NA,NA,NA,NA,NA,103.762,NA,NA,NA,NA,Slide 2 of 7,2024-07-05_12h23.12.417,NA,NA,NA,NA,NA,NA,Win32,NA,NA,NA,NA,NA,NA,NA,NA,NA,NA,NA,NA,1,0,NA,NA,NA,NA,NA,NA,NA,NA,NA,NA,1,NA,1,NA,NA,NA,NA,NA,NA,NA,NA,NA,NA,NA,NA,NA,108.986,1,NA,NA,NA,2024.1.1,NA,NA,NA,NA,"First, you will be asked to read a statement and indicate how emotional you find it, and how strongly you believe the variables it describes to be related.",NA,NA,2024-07-05_12h23.06.222,59.95203836930351,NA,NA,NA,NA,NA,NA,NA,NA,NA,6687d791b4c592166f721382,2,TRUE,8
﻿,NA,NA,NA,atypical_scatterplots_main_test_T,NA,NA,NA,66868c1df973f7ededaff065,NA,001,PARTICIPANT,NA,atypical_scatterplots_main_T,NA,NA,NA,NA,NA,NA,NA,NA,NA,NA,NA,NA,NA,NA,NA,NA,NA,NA,NA,108.988,NA,NA,NA,NA,Slide 3 of 7,2024-07-05_12h23.12.417,NA,NA,NA,NA,NA,NA,Win32,NA,NA,NA,NA,NA,NA,NA,NA,NA,NA,NA,NA,2,0,NA,NA,NA,NA,NA,NA,NA,NA,NA,NA,1,NA,2,NA,NA,NA,NA,NA,NA,NA,NA,NA,NA,NA,NA,NA,112.533,2,NA,NA,NA,2024.1.1,NA,NA,NA,NA,"Then, you will be shown a series of 45 scatterplots. Scatterplots depict the level of relatedness between variables.",NA,NA,2024-07-05_12h23.06.222,59.95203836930351,NA,NA,NA,NA,NA,NA,NA,NA,NA,6687d791b4c592166f721382,2,TRUE,8
﻿,NA,NA,NA,atypical_scatterplots_main_test_T,NA,NA,NA,66868c1df973f7ededaff065,NA,001,PARTICIPANT,NA,atypical_scatterplots_main_T,NA,NA,NA,NA,NA,NA,NA,NA,NA,NA,NA,NA,NA,NA,NA,NA,NA,NA,NA,112.534,NA,NA,NA,NA,Slide 4 of 7,2024-07-05_12h23.12.417,NA,NA,NA,NA,NA,NA,Win32,NA,NA,NA,NA,NA,NA,NA,NA,NA,NA,NA,NA,3,0,NA,NA,NA,NA,NA,NA,NA,NA,NA,NA,1,NA,3,NA,NA,NA,NA,NA,NA,NA,NA,NA,NA,NA,NA,NA,116.346,3,NA,NA,NA,2024.1.1,NA,NA,NA,NA,This relatedness is often measured on a scale between 0 (not related at all) and 1 (extremely related).,NA,NA,2024-07-05_12h23.06.222,59.95203836930351,NA,NA,NA,NA,NA,NA,NA,NA,NA,6687d791b4c592166f721382,2,TRUE,8
﻿,NA,NA,NA,atypical_scatterplots_main_test_T,NA,NA,NA,66868c1df973f7ededaff065,NA,001,PARTICIPANT,NA,atypical_scatterplots_main_T,NA,NA,NA,NA,NA,NA,NA,NA,NA,NA,NA,NA,NA,NA,NA,NA,NA,NA,NA,116.34799999999998,NA,NA,NA,NA,Slide 5 of 7,2024-07-05_12h23.12.417,NA,NA,NA,NA,NA,NA,Win32,NA,NA,NA,NA,NA,NA,NA,NA,NA,NA,NA,NA,4,0,NA,NA,NA,NA,NA,NA,NA,NA,NA,NA,1,NA,4,NA,NA,NA,NA,NA,NA,NA,NA,NA,NA,NA,NA,NA,120.726,4,NA,NA,NA,2024.1.1,NA,NA,NA,NA,The graphs you will see have been taken from a well-known British news source. The identity of this source has been obscured at their request.,NA,NA,2024-07-05_12h23.06.222,59.95203836930351,NA,NA,NA,NA,NA,NA,NA,NA,NA,6687d791b4c592166f721382,2,TRUE,8
﻿,NA,NA,NA,atypical_scatterplots_main_test_T,NA,NA,NA,66868c1df973f7ededaff065,NA,001,PARTICIPANT,NA,atypical_scatterplots_main_T,NA,NA,NA,NA,NA,NA,NA,NA,NA,NA,NA,NA,NA,NA,NA,NA,NA,NA,NA,120.729,NA,NA,NA,NA,Slide 6 of 7,2024-07-05_12h23.12.417,NA,NA,NA,NA,NA,NA,Win32,NA,NA,NA,NA,NA,NA,NA,NA,NA,NA,NA,NA,5,0,NA,NA,NA,NA,NA,NA,NA,NA,NA,NA,1,NA,5,NA,NA,NA,NA,NA,NA,NA,NA,NA,NA,NA,NA,NA,123.373,5,NA,NA,NA,2024.1.1,NA,NA,NA,NA,"Once you have rated each scatterplot, press the spacebar to move onto the next trial.",NA,NA,2024-07-05_12h23.06.222,59.95203836930351,NA,NA,NA,NA,NA,NA,NA,NA,NA,6687d791b4c592166f721382,2,TRUE,8
﻿,NA,NA,NA,atypical_scatterplots_main_test_T,NA,NA,NA,66868c1df973f7ededaff065,NA,001,PARTICIPANT,NA,atypical_scatterplots_main_T,NA,NA,NA,NA,NA,NA,NA,NA,NA,NA,NA,NA,NA,NA,NA,NA,NA,NA,NA,123.375,NA,NA,NA,NA,Slide 7 of 7,2024-07-05_12h23.12.417,NA,NA,NA,NA,NA,NA,Win32,NA,NA,NA,NA,NA,NA,NA,NA,NA,NA,NA,NA,6,0,NA,NA,NA,NA,NA,NA,NA,NA,NA,NA,1,NA,6,NA,NA,NA,NA,NA,NA,NA,NA,NA,NA,NA,NA,NA,126.57,6,NA,NA,NA,2024.1.1,NA,NA,NA,NA,You will now have the chance to practice rating graphs using the sliding scale.,NA,NA,2024-07-05_12h23.06.222,59.95203836930351,NA,NA,NA,NA,NA,NA,NA,NA,NA,6687d791b4c592166f721382,2,TRUE,8
﻿,NA,NA,NA,atypical_scatterplots_main_test_T,NA,NA,NA,66868c1df973f7ededaff065,NA,001,PARTICIPANT,NA,atypical_scatterplots_main_T,NA,NA,NA,NA,NA,NA,NA,NA,NA,NA,NA,NA,NA,NA,NA,NA,NA,NA,NA,NA,126.57,NA,NA,NA,NA,2024-07-05_12h23.12.417,NA,NA,NA,NA,NA,NA,Win32,NA,NA,NA,NA,NA,NA,NA,NA,NA,NA,NA,NA,NA,NA,NA,NA,NA,NA,NA,NA,NA,NA,NA,NA,NA,NA,NA,NA,NA,NA,NA,NA,NA,NA,NA,NA,NA,NA,NA,129.751,NA,NA,NA,NA,NA,2024.1.1,NA,NA,NA,NA,NA,NA,NA,2024-07-05_12h23.06.222,59.95203836930351,NA,NA,NA,NA,NA,NA,NA,NA,NA,6687d791b4c592166f721382,2,TRUE,8
﻿,NA,NA,NA,atypical_scatterplots_main_test_T,NA,NA,NA,66868c1df973f7ededaff065,space,001,PARTICIPANT,NA,atypical_scatterplots_main_T,NA,NA,NA,NA,0.6160000000000139,NA,NA,NA,NA,143.224,NA,NA,NA,NA,151.249,NA,NA,NA,NA,NA,NA,NA,NA,NA,NA,2024-07-05_12h23.12.417,NA,NA,5.322000000000003,NA,NA,NA,Win32,NA,NA,NA,NA,NA,NA,NA,NA,NA,NA,NA,NA,NA,NA,NA,NA,NA,NA,NA,NA,NA,NA,NA,148.601,NA,NA,NA,NA,NA,NA,NA,148.601,NA,NA,NA,NA,NA,NA,NA,NA,NA,NA,NA,NA,NA,2024.1.1,NA,NA,NA,NA,NA,NA,NA,2024-07-05_12h23.06.222,59.95203836930351,space,4.822000000000003,NA,NA,NA,0.8206018518518519,NA,NA,NA,6687d791b4c592166f721382,2,TRUE,8
﻿,NA,NA,NA,atypical_scatterplots_main_test_T,NA,174.945,2,66868c1df973f7ededaff065,NA,001,PARTICIPANT,NA,atypical_scatterplots_main_T,NA,NA,NA,NA,NA,NA,NA,NA,151.249,NA,NA,NA,NA,3.778999999999997,NA,NA,NA,NA,NA,NA,NA,NA,NA,NA,NA,2024-07-05_12h23.12.417,NA,NA,NA,15.742999999999997,NA,NA,Win32,NA,NA,NA,NA,NA,NA,NA,NA,NA,NA,NA,NA,NA,NA,NA,NA,NA,NA,NA,NA,NA,NA,NA,NA,NA,NA,NA,NA,NA,NA,NA,NA,NA,23.239000000000004,NA,space,NA,4,NA,NA,NA,NA,NA,NA,NA,2024.1.1,NA,NA,NA,NA,NA,NA,NA,2024-07-05_12h23.06.222,59.95203836930351,NA,NA,NA,NA,NA,NA,NA,NA,NA,6687d791b4c592166f721382,2,TRUE,8
﻿Please look at the following plot and use the slider to estimate the level of relatedness.,NA,NA,NA,atypical_scatterplots_main_test_T,NA,NA,NA,66868c1df973f7ededaff065,NA,001,PARTICIPANT,7_spice_T_hi.png,atypical_scatterplots_main_T,NA,NA,NA,NA,NA,0.1740000000000066,0,0,NA,NA,NA,174.955,NA,NA,NA,NA,NA,NA,NA,NA,NA,NA,NA,NA,NA,2024-07-05_12h23.12.417,0,7T,NA,NA,NA,NA,Win32,NA,all_plots/7_spice_T_hi.png,6,NA,NA,NA,NA,NA,NA,NA,NA,NA,NA,NA,NA,NA,space,NA,NA,black,NA,NA,NA,NA,NA,1,NA,NA,NA,177.742,NA,NA,NA,NA,NA,NA,NA,NA,NA,NA,NA,NA,NA,NA,NA,2024.1.1,NA,NA,NA,NA,NA,NA,NA,2024-07-05_12h23.06.222,59.95203836930351,NA,NA,NA,NA,NA,NA,NA,NA,NA,6687d791b4c592166f721382,2,TRUE,8
﻿Please look at the following plot and use the slider to estimate the level of relatedness.,NA,NA,NA,atypical_scatterplots_main_test_T,NA,NA,NA,66868c1df973f7ededaff065,NA,001,PARTICIPANT,20_spice_T_hi.png,atypical_scatterplots_main_T,NA,NA,NA,NA,NA,9.294000000000011,1,1,NA,NA,NA,177.743,NA,NA,NA,NA,NA,NA,NA,NA,NA,NA,NA,NA,NA,2024-07-05_12h23.12.417,0,20T,NA,NA,NA,NA,Win32,NA,all_plots/20_spice_T_hi.png,19,NA,NA,NA,NA,NA,NA,NA,NA,NA,NA,NA,0.8101851851851851,NA,space,NA,NA,black,NA,NA,NA,NA,NA,1,NA,NA,NA,189.631,NA,NA,NA,NA,NA,NA,NA,NA,NA,NA,NA,NA,NA,NA,NA,2024.1.1,NA,NA,NA,NA,NA,NA,NA,2024-07-05_12h23.06.222,59.95203836930351,NA,NA,10.793999999999984,NA,NA,NA,NA,NA,NA,6687d791b4c592166f721382,2,TRUE,8
﻿Please look at the following plot and use the slider to estimate the level of relatedness.,NA,NA,NA,atypical_scatterplots_main_test_T,NA,NA,NA,66868c1df973f7ededaff065,NA,001,PARTICIPANT,37_spice_T_hi.png,atypical_scatterplots_main_T,NA,NA,NA,NA,NA,6.513000000000005,2,2,NA,NA,NA,189.633,NA,NA,NA,NA,NA,NA,NA,NA,NA,NA,NA,NA,NA,2024-07-05_12h23.12.417,0,37T,NA,NA,NA,NA,Win32,NA,all_plots/37_spice_T_hi.png,36,NA,NA,NA,NA,NA,NA,NA,NA,NA,NA,NA,0.8622685185185186,NA,space,NA,NA,black,NA,NA,NA,NA,NA,1,NA,NA,NA,198.723,NA,NA,NA,NA,NA,NA,NA,NA,NA,NA,NA,NA,NA,NA,NA,2024.1.1,NA,NA,NA,NA,NA,NA,NA,2024-07-05_12h23.06.222,59.95203836930351,NA,NA,8.513000000000005,NA,NA,NA,NA,NA,NA,6687d791b4c592166f721382,2,TRUE,8
﻿Please look at the following plot and use the slider to estimate the level of relatedness.,NA,NA,NA,atypical_scatterplots_main_test_T,NA,NA,NA,66868c1df973f7ededaff065,NA,001,PARTICIPANT,41_spice_T_hi.png,atypical_scatterplots_main_T,NA,NA,NA,NA,NA,2.593999999999994,3,3,NA,NA,NA,198.724,NA,NA,NA,NA,NA,NA,NA,NA,NA,NA,NA,NA,NA,2024-07-05_12h23.12.417,0,41T,NA,NA,NA,NA,Win32,NA,all_plots/41_spice_T_hi.png,40,NA,NA,NA,NA,NA,NA,NA,NA,NA,NA,NA,0.8449074074074074,NA,space,NA,NA,black,NA,NA,NA,NA,NA,1,NA,NA,NA,203.902,NA,NA,NA,NA,NA,NA,NA,NA,NA,NA,NA,NA,NA,NA,NA,2024.1.1,NA,NA,NA,NA,NA,NA,NA,2024-07-05_12h23.06.222,59.95203836930351,NA,NA,4.119,NA,NA,NA,NA,NA,NA,6687d791b4c592166f721382,2,TRUE,8
﻿Please IGNORE the plot and set the slider to 0.,NA,NA,NA,atypical_scatterplots_main_test_T,NA,NA,NA,66868c1df973f7ededaff065,NA,001,PARTICIPANT,2_spice_T_hi.png,atypical_scatterplots_main_T,NA,NA,NA,NA,NA,3.2520000000000095,4,4,NA,NA,NA,203.903,NA,NA,NA,NA,NA,NA,NA,NA,NA,NA,NA,NA,NA,2024-07-05_12h23.12.417,0,47T,NA,NA,NA,NA,Win32,NA,all_plots/2_spice_T_hi.png,46,NA,NA,NA,NA,NA,NA,NA,NA,NA,NA,NA,0,NA,space,NA,NA,red,NA,NA,NA,NA,NA,1,NA,NA,NA,209.748,NA,NA,NA,NA,NA,NA,NA,NA,NA,NA,NA,NA,NA,NA,NA,2024.1.1,NA,NA,NA,NA,NA,NA,NA,2024-07-05_12h23.06.222,59.95203836930351,NA,NA,4.318000000000012,NA,NA,NA,NA,NA,NA,6687d791b4c592166f721382,2,TRUE,8
﻿Please look at the following plot and use the slider to estimate the level of relatedness.,NA,NA,NA,atypical_scatterplots_main_test_T,NA,NA,NA,66868c1df973f7ededaff065,NA,001,PARTICIPANT,15_spice_T_hi.png,atypical_scatterplots_main_T,NA,NA,NA,NA,NA,3.167999999999978,5,5,NA,NA,NA,209.75,NA,NA,NA,NA,NA,NA,NA,NA,NA,NA,NA,NA,NA,2024-07-05_12h23.12.417,0,15T,NA,NA,NA,NA,Win32,NA,all_plots/15_spice_T_hi.png,14,NA,NA,NA,NA,NA,NA,NA,NA,NA,NA,NA,0.6365740740740741,NA,space,NA,NA,black,NA,NA,NA,NA,NA,1,NA,NA,NA,215.492,NA,NA,NA,NA,NA,NA,NA,NA,NA,NA,NA,NA,NA,NA,NA,2024.1.1,NA,NA,NA,NA,NA,NA,NA,2024-07-05_12h23.06.222,59.95203836930351,NA,NA,5.239000000000004,NA,NA,NA,NA,NA,NA,6687d791b4c592166f721382,2,TRUE,8
﻿Please look at the following plot and use the slider to estimate the level of relatedness.,NA,NA,NA,atypical_scatterplots_main_test_T,NA,NA,NA,66868c1df973f7ededaff065,NA,001,PARTICIPANT,21_spice_T_hi.png,atypical_scatterplots_main_T,NA,NA,NA,NA,NA,2.9339999999999975,6,6,NA,NA,NA,215.494,NA,NA,NA,NA,NA,NA,NA,NA,NA,NA,NA,NA,NA,2024-07-05_12h23.12.417,0,21T,NA,NA,NA,NA,Win32,NA,all_plots/21_spice_T_hi.png,20,NA,NA,NA,NA,NA,NA,NA,NA,NA,NA,NA,0.71875,NA,space,NA,NA,black,NA,NA,NA,NA,NA,1,NA,NA,NA,221.021,NA,NA,NA,NA,NA,NA,NA,NA,NA,NA,NA,NA,NA,NA,NA,2024.1.1,NA,NA,NA,NA,NA,NA,NA,2024-07-05_12h23.06.222,59.95203836930351,NA,NA,4.71599999999998,NA,NA,NA,NA,NA,NA,6687d791b4c592166f721382,2,TRUE,8
﻿Please look at the following plot and use the slider to estimate the level of relatedness.,NA,NA,NA,atypical_scatterplots_main_test_T,NA,NA,NA,66868c1df973f7ededaff065,NA,001,PARTICIPANT,9_spice_T_hi.png,atypical_scatterplots_main_T,NA,NA,NA,NA,NA,6.1270000000000095,7,7,NA,NA,NA,221.022,NA,NA,NA,NA,NA,NA,NA,NA,NA,NA,NA,NA,NA,2024-07-05_12h23.12.417,0,9T,NA,NA,NA,NA,Win32,NA,all_plots/9_spice_T_hi.png,8,NA,NA,NA,NA,NA,NA,NA,NA,NA,NA,NA,0.6145833333333334,NA,space,NA,NA,black,NA,NA,NA,NA,NA,1,NA,NA,NA,229.73,NA,NA,NA,NA,NA,NA,NA,NA,NA,NA,NA,NA,NA,NA,NA,2024.1.1,NA,NA,NA,NA,NA,NA,NA,2024-07-05_12h23.06.222,59.95203836930351,NA,NA,8.145999999999987,NA,NA,NA,NA,NA,NA,6687d791b4c592166f721382,2,TRUE,8
﻿Please look at the following plot and use the slider to estimate the level of relatedness.,NA,NA,NA,atypical_scatterplots_main_test_T,NA,NA,NA,66868c1df973f7ededaff065,NA,001,PARTICIPANT,6_spice_T_hi.png,atypical_scatterplots_main_T,NA,NA,NA,NA,NA,2.398000000000025,8,8,NA,NA,NA,229.73,NA,NA,NA,NA,NA,NA,NA,NA,NA,NA,NA,NA,NA,2024-07-05_12h23.12.417,0,6T,NA,NA,NA,NA,Win32,NA,all_plots/6_spice_T_hi.png,5,NA,NA,NA,NA,NA,NA,NA,NA,NA,NA,NA,0.5925925925925926,NA,space,NA,NA,black,NA,NA,NA,NA,NA,1,NA,NA,NA,234.709,NA,NA,NA,NA,NA,NA,NA,NA,NA,NA,NA,NA,NA,NA,NA,2024.1.1,NA,NA,NA,NA,NA,NA,NA,2024-07-05_12h23.06.222,59.95203836930351,NA,NA,4.475999999999999,NA,NA,NA,NA,NA,NA,6687d791b4c592166f721382,2,TRUE,8
﻿Please look at the following plot and use the slider to estimate the level of relatedness.,NA,NA,NA,atypical_scatterplots_main_test_T,NA,NA,NA,66868c1df973f7ededaff065,NA,001,PARTICIPANT,40_spice_T_hi.png,atypical_scatterplots_main_T,NA,NA,NA,NA,NA,2.0420000000000016,9,9,NA,NA,NA,234.709,NA,NA,NA,NA,NA,NA,NA,NA,NA,NA,NA,NA,NA,2024-07-05_12h23.12.417,0,40T,NA,NA,NA,NA,Win32,NA,all_plots/40_spice_T_hi.png,39,NA,NA,NA,NA,NA,NA,NA,NA,NA,NA,NA,0.8877314814814814,NA,space,NA,NA,black,NA,NA,NA,NA,NA,1,NA,NA,NA,239.339,NA,NA,NA,NA,NA,NA,NA,NA,NA,NA,NA,NA,NA,NA,NA,2024.1.1,NA,NA,NA,NA,NA,NA,NA,2024-07-05_12h23.06.222,59.95203836930351,NA,NA,4.215000000000003,NA,NA,NA,NA,NA,NA,6687d791b4c592166f721382,2,TRUE,8
﻿Please look at the following plot and use the slider to estimate the level of relatedness.,NA,NA,NA,atypical_scatterplots_main_test_T,NA,NA,NA,66868c1df973f7ededaff065,NA,001,PARTICIPANT,43_spice_T_hi.png,atypical_scatterplots_main_T,NA,NA,NA,NA,NA,2.1780000000000257,10,10,NA,NA,NA,239.34,NA,NA,NA,NA,NA,NA,NA,NA,NA,NA,NA,NA,NA,2024-07-05_12h23.12.417,0,43T,NA,NA,NA,NA,Win32,NA,all_plots/43_spice_T_hi.png,42,NA,NA,NA,NA,NA,NA,NA,NA,NA,NA,NA,0.8773148148148149,NA,space,NA,NA,black,NA,NA,NA,NA,NA,1,NA,NA,NA,244.101,NA,NA,NA,NA,NA,NA,NA,NA,NA,NA,NA,NA,NA,NA,NA,2024.1.1,NA,NA,NA,NA,NA,NA,NA,2024-07-05_12h23.06.222,59.95203836930351,NA,NA,4.264999999999986,NA,NA,NA,NA,NA,NA,6687d791b4c592166f721382,2,TRUE,8
﻿Please look at the following plot and use the slider to estimate the level of relatedness.,NA,NA,NA,atypical_scatterplots_main_test_T,NA,NA,NA,66868c1df973f7ededaff065,NA,001,PARTICIPANT,13_spice_T_hi.png,atypical_scatterplots_main_T,NA,NA,NA,NA,NA,2.767999999999944,11,11,NA,NA,NA,244.101,NA,NA,NA,NA,NA,NA,NA,NA,NA,NA,NA,NA,NA,2024-07-05_12h23.12.417,0,13T,NA,NA,NA,NA,Win32,NA,all_plots/13_spice_T_hi.png,12,NA,NA,NA,NA,NA,NA,NA,NA,NA,NA,NA,0.6064814814814815,NA,space,NA,NA,black,NA,NA,NA,NA,NA,1,NA,NA,NA,249.44499999999996,NA,NA,NA,NA,NA,NA,NA,NA,NA,NA,NA,NA,NA,NA,NA,2024.1.1,NA,NA,NA,NA,NA,NA,NA,2024-07-05_12h23.06.222,59.95203836930351,NA,NA,4.916999999999945,NA,NA,NA,NA,NA,NA,6687d791b4c592166f721382,2,TRUE,8
﻿Please look at the following plot and use the slider to estimate the level of relatedness.,NA,NA,NA,atypical_scatterplots_main_test_T,NA,NA,NA,66868c1df973f7ededaff065,NA,001,PARTICIPANT,25_spice_T_hi.png,atypical_scatterplots_main_T,NA,NA,NA,NA,NA,3.132999999999982,12,12,NA,NA,NA,249.446,NA,NA,NA,NA,NA,NA,NA,NA,NA,NA,NA,NA,NA,2024-07-05_12h23.12.417,0,25T,NA,NA,NA,NA,Win32,NA,all_plots/25_spice_T_hi.png,24,NA,NA,NA,NA,NA,NA,NA,NA,NA,NA,NA,0.7106481481481481,NA,space,NA,NA,black,NA,NA,NA,NA,NA,1,NA,NA,NA,255.15699999999995,NA,NA,NA,NA,NA,NA,NA,NA,NA,NA,NA,NA,NA,NA,NA,2024.1.1,NA,NA,NA,NA,NA,NA,NA,2024-07-05_12h23.06.222,59.95203836930351,NA,NA,5.301000000000045,NA,NA,NA,NA,NA,NA,6687d791b4c592166f721382,2,TRUE,8
﻿Please look at the following plot and use the slider to estimate the level of relatedness.,NA,NA,NA,atypical_scatterplots_main_test_T,NA,NA,NA,66868c1df973f7ededaff065,NA,001,PARTICIPANT,32_spice_T_hi.png,atypical_scatterplots_main_T,NA,NA,NA,NA,NA,2.29200000000003,13,13,NA,NA,NA,255.158,NA,NA,NA,NA,NA,NA,NA,NA,NA,NA,NA,NA,NA,2024-07-05_12h23.12.417,0,32T,NA,NA,NA,NA,Win32,NA,all_plots/32_spice_T_hi.png,31,NA,NA,NA,NA,NA,NA,NA,NA,NA,NA,NA,0.6493055555555556,NA,space,NA,NA,black,NA,NA,NA,NA,NA,1,NA,NA,NA,260.019,NA,NA,NA,NA,NA,NA,NA,NA,NA,NA,NA,NA,NA,NA,NA,2024.1.1,NA,NA,NA,NA,NA,NA,NA,2024-07-05_12h23.06.222,59.95203836930351,NA,NA,3.966999999999985,NA,NA,NA,NA,NA,NA,6687d791b4c592166f721382,2,TRUE,8
﻿Please look at the following plot and use the slider to estimate the level of relatedness.,NA,NA,NA,atypical_scatterplots_main_test_T,NA,NA,NA,66868c1df973f7ededaff065,NA,001,PARTICIPANT,44_spice_T_hi.png,atypical_scatterplots_main_T,NA,NA,NA,NA,NA,2.230000000000018,14,14,NA,NA,NA,260.02,NA,NA,NA,NA,NA,NA,NA,NA,NA,NA,NA,NA,NA,2024-07-05_12h23.12.417,0,44T,NA,NA,NA,NA,Win32,NA,all_plots/44_spice_T_hi.png,43,NA,NA,NA,NA,NA,NA,NA,NA,NA,NA,NA,0.8900462962962963,NA,space,NA,NA,black,NA,NA,NA,NA,NA,1,NA,NA,NA,264.832,NA,NA,NA,NA,NA,NA,NA,NA,NA,NA,NA,NA,NA,NA,NA,2024.1.1,NA,NA,NA,NA,NA,NA,NA,2024-07-05_12h23.06.222,59.95203836930351,NA,NA,4.3559999999999945,NA,NA,NA,NA,NA,NA,6687d791b4c592166f721382,2,TRUE,8
﻿Please IGNORE the plot and set the slider to 0.,NA,NA,NA,atypical_scatterplots_main_test_T,NA,NA,NA,66868c1df973f7ededaff065,NA,001,PARTICIPANT,1_spice_T_hi.png,atypical_scatterplots_main_T,NA,NA,NA,NA,NA,1.8489999999999895,15,15,NA,NA,NA,264.832,NA,NA,NA,NA,NA,NA,NA,NA,NA,NA,NA,NA,NA,2024-07-05_12h23.12.417,0,46T,NA,NA,NA,NA,Win32,NA,all_plots/1_spice_T_hi.png,45,NA,NA,NA,NA,NA,NA,NA,NA,NA,NA,NA,0.00347222222222221,NA,space,NA,NA,red,NA,NA,NA,NA,NA,1,NA,NA,NA,269.329,NA,NA,NA,NA,NA,NA,NA,NA,NA,NA,NA,NA,NA,NA,NA,2024.1.1,NA,NA,NA,NA,NA,NA,NA,2024-07-05_12h23.06.222,59.95203836930351,NA,NA,3.808999999999969,NA,NA,NA,NA,NA,NA,6687d791b4c592166f721382,2,TRUE,8
﻿Please look at the following plot and use the slider to estimate the level of relatedness.,NA,NA,NA,atypical_scatterplots_main_test_T,NA,NA,NA,66868c1df973f7ededaff065,NA,001,PARTICIPANT,17_spice_T_hi.png,atypical_scatterplots_main_T,NA,NA,NA,NA,NA,2.2959999999999923,16,16,NA,NA,NA,269.33,NA,NA,NA,NA,NA,NA,NA,NA,NA,NA,NA,NA,NA,2024-07-05_12h23.12.417,0,17T,NA,NA,NA,NA,Win32,NA,all_plots/17_spice_T_hi.png,16,NA,NA,NA,NA,NA,NA,NA,NA,NA,NA,NA,0.5243055555555556,NA,space,NA,NA,black,NA,NA,NA,NA,NA,1,NA,NA,NA,274.207,NA,NA,NA,NA,NA,NA,NA,NA,NA,NA,NA,NA,NA,NA,NA,2024.1.1,NA,NA,NA,NA,NA,NA,NA,2024-07-05_12h23.06.222,59.95203836930351,NA,NA,4.250999999999976,NA,NA,NA,NA,NA,NA,6687d791b4c592166f721382,2,TRUE,8
﻿Please look at the following plot and use the slider to estimate the level of relatedness.,NA,NA,NA,atypical_scatterplots_main_test_T,NA,NA,NA,66868c1df973f7ededaff065,NA,001,PARTICIPANT,16_spice_T_hi.png,atypical_scatterplots_main_T,NA,NA,NA,NA,NA,1.7790000000000532,17,17,NA,NA,NA,274.208,NA,NA,NA,NA,NA,NA,NA,NA,NA,NA,NA,NA,NA,2024-07-05_12h23.12.417,0,16T,NA,NA,NA,NA,Win32,NA,all_plots/16_spice_T_hi.png,15,NA,NA,NA,NA,NA,NA,NA,NA,NA,NA,NA,0.5115740740740741,NA,space,NA,NA,black,NA,NA,NA,NA,NA,1,NA,NA,NA,278.57,NA,NA,NA,NA,NA,NA,NA,NA,NA,NA,NA,NA,NA,NA,NA,2024.1.1,NA,NA,NA,NA,NA,NA,NA,2024-07-05_12h23.06.222,59.95203836930351,NA,NA,3.8840000000000146,NA,NA,NA,NA,NA,NA,6687d791b4c592166f721382,2,TRUE,8
﻿Please look at the following plot and use the slider to estimate the level of relatedness.,NA,NA,NA,atypical_scatterplots_main_test_T,NA,NA,NA,66868c1df973f7ededaff065,NA,001,PARTICIPANT,24_spice_T_hi.png,atypical_scatterplots_main_T,NA,NA,NA,NA,NA,1.6170000000000186,18,18,NA,NA,NA,278.572,NA,NA,NA,NA,NA,NA,NA,NA,NA,NA,NA,NA,NA,2024-07-05_12h23.12.417,0,24T,NA,NA,NA,NA,Win32,NA,all_plots/24_spice_T_hi.png,23,NA,NA,NA,NA,NA,NA,NA,NA,NA,NA,NA,0.5729166666666666,NA,space,NA,NA,black,NA,NA,NA,NA,NA,1,NA,NA,NA,282.766,NA,NA,NA,NA,NA,NA,NA,NA,NA,NA,NA,NA,NA,NA,NA,2024.1.1,NA,NA,NA,NA,NA,NA,NA,2024-07-05_12h23.06.222,59.95203836930351,NA,NA,3.805999999999983,NA,NA,NA,NA,NA,NA,6687d791b4c592166f721382,2,TRUE,8
﻿Please look at the following plot and use the slider to estimate the level of relatedness.,NA,NA,NA,atypical_scatterplots_main_test_T,NA,NA,NA,66868c1df973f7ededaff065,NA,001,PARTICIPANT,10_spice_T_hi.png,atypical_scatterplots_main_T,NA,NA,NA,NA,NA,2.313000000000045,19,19,NA,NA,NA,282.766,NA,NA,NA,NA,NA,NA,NA,NA,NA,NA,NA,NA,NA,2024-07-05_12h23.12.417,0,10T,NA,NA,NA,NA,Win32,NA,all_plots/10_spice_T_hi.png,9,NA,NA,NA,NA,NA,NA,NA,NA,NA,NA,NA,0.5416666666666666,NA,space,NA,NA,black,NA,NA,NA,NA,NA,1,NA,NA,NA,287.662,NA,NA,NA,NA,NA,NA,NA,NA,NA,NA,NA,NA,NA,NA,NA,2024.1.1,NA,NA,NA,NA,NA,NA,NA,2024-07-05_12h23.06.222,59.95203836930351,NA,NA,4.418000000000006,NA,NA,NA,NA,NA,NA,6687d791b4c592166f721382,2,TRUE,8
﻿Please look at the following plot and use the slider to estimate the level of relatedness.,NA,NA,NA,atypical_scatterplots_main_test_T,NA,NA,NA,66868c1df973f7ededaff065,NA,001,PARTICIPANT,26_spice_T_hi.png,atypical_scatterplots_main_T,NA,NA,NA,NA,NA,1.7969999999999686,20,20,NA,NA,NA,287.662,NA,NA,NA,NA,NA,NA,NA,NA,NA,NA,NA,NA,NA,2024-07-05_12h23.12.417,0,26T,NA,NA,NA,NA,Win32,NA,all_plots/26_spice_T_hi.png,25,NA,NA,NA,NA,NA,NA,NA,NA,NA,NA,NA,0.5162037037037037,NA,space,NA,NA,black,NA,NA,NA,NA,NA,1,NA,NA,NA,292.041,NA,NA,NA,NA,NA,NA,NA,NA,NA,NA,NA,NA,NA,NA,NA,2024.1.1,NA,NA,NA,NA,NA,NA,NA,2024-07-05_12h23.06.222,59.95203836930351,NA,NA,3.915999999999997,NA,NA,NA,NA,NA,NA,6687d791b4c592166f721382,2,TRUE,8
﻿Please look at the following plot and use the slider to estimate the level of relatedness.,NA,NA,NA,atypical_scatterplots_main_test_T,NA,NA,NA,66868c1df973f7ededaff065,NA,001,PARTICIPANT,39_spice_T_hi.png,atypical_scatterplots_main_T,NA,NA,NA,NA,NA,1.8799999999999957,21,21,NA,NA,NA,292.042,NA,NA,NA,NA,NA,NA,NA,NA,NA,NA,NA,NA,NA,2024-07-05_12h23.12.417,0,39T,NA,NA,NA,NA,Win32,NA,all_plots/39_spice_T_hi.png,38,NA,NA,NA,NA,NA,NA,NA,NA,NA,NA,NA,0.818287037037037,NA,space,NA,NA,black,NA,NA,NA,NA,NA,1,NA,NA,NA,296.504,NA,NA,NA,NA,NA,NA,NA,NA,NA,NA,NA,NA,NA,NA,NA,2024.1.1,NA,NA,NA,NA,NA,NA,NA,2024-07-05_12h23.06.222,59.95203836930351,NA,NA,4.069999999999993,NA,NA,NA,NA,NA,NA,6687d791b4c592166f721382,2,TRUE,8
﻿Please look at the following plot and use the slider to estimate the level of relatedness.,NA,NA,NA,atypical_scatterplots_main_test_T,NA,NA,NA,66868c1df973f7ededaff065,NA,001,PARTICIPANT,8_spice_T_hi.png,atypical_scatterplots_main_T,NA,NA,NA,NA,NA,1.8170000000000073,22,22,NA,NA,NA,296.504,NA,NA,NA,NA,NA,NA,NA,NA,NA,NA,NA,NA,NA,2024-07-05_12h23.12.417,0,8T,NA,NA,NA,NA,Win32,NA,all_plots/8_spice_T_hi.png,7,NA,NA,NA,NA,NA,NA,NA,NA,NA,NA,NA,0.5243055555555556,NA,space,NA,NA,black,NA,NA,NA,NA,NA,1,NA,NA,NA,300.9,NA,NA,NA,NA,NA,NA,NA,NA,NA,NA,NA,NA,NA,NA,NA,2024.1.1,NA,NA,NA,NA,NA,NA,NA,2024-07-05_12h23.06.222,59.95203836930351,NA,NA,3.939000000000022,NA,NA,NA,NA,NA,NA,6687d791b4c592166f721382,2,TRUE,8
﻿Please look at the following plot and use the slider to estimate the level of relatedness.,NA,NA,NA,atypical_scatterplots_main_test_T,NA,NA,NA,66868c1df973f7ededaff065,NA,001,PARTICIPANT,33_spice_T_hi.png,atypical_scatterplots_main_T,NA,NA,NA,NA,NA,2.439000000000022,23,23,NA,NA,NA,300.9,NA,NA,NA,NA,NA,NA,NA,NA,NA,NA,NA,NA,NA,2024-07-05_12h23.12.417,0,33T,NA,NA,NA,NA,Win32,NA,all_plots/33_spice_T_hi.png,32,NA,NA,NA,NA,NA,NA,NA,NA,NA,NA,NA,0.6921296296296297,NA,space,NA,NA,black,NA,NA,NA,NA,NA,1,NA,NA,NA,305.929,NA,NA,NA,NA,NA,NA,NA,NA,NA,NA,NA,NA,NA,NA,NA,2024.1.1,NA,NA,NA,NA,NA,NA,NA,2024-07-05_12h23.06.222,59.95203836930351,NA,NA,4.515999999999963,NA,NA,NA,NA,NA,NA,6687d791b4c592166f721382,2,TRUE,8
﻿Please look at the following plot and use the slider to estimate the level of relatedness.,NA,NA,NA,atypical_scatterplots_main_test_T,NA,NA,NA,66868c1df973f7ededaff065,NA,001,PARTICIPANT,29_spice_T_hi.png,atypical_scatterplots_main_T,NA,NA,NA,NA,NA,1.7099999999999795,24,24,NA,NA,NA,305.932,NA,NA,NA,NA,NA,NA,NA,NA,NA,NA,NA,NA,NA,2024-07-05_12h23.12.417,0,29T,NA,NA,NA,NA,Win32,NA,all_plots/29_spice_T_hi.png,28,NA,NA,NA,NA,NA,NA,NA,NA,NA,NA,NA,0.7199074074074074,NA,space,NA,NA,black,NA,NA,NA,NA,NA,1,NA,NA,NA,310.226,NA,NA,NA,NA,NA,NA,NA,NA,NA,NA,NA,NA,NA,NA,NA,2024.1.1,NA,NA,NA,NA,NA,NA,NA,2024-07-05_12h23.06.222,59.95203836930351,NA,NA,3.8839999999999577,NA,NA,NA,NA,NA,NA,6687d791b4c592166f721382,2,TRUE,8
﻿Please look at the following plot and use the slider to estimate the level of relatedness.,NA,NA,NA,atypical_scatterplots_main_test_T,NA,NA,NA,66868c1df973f7ededaff065,NA,001,PARTICIPANT,23_spice_T_hi.png,atypical_scatterplots_main_T,NA,NA,NA,NA,NA,1.9209999999999925,25,25,NA,NA,NA,310.227,NA,NA,NA,NA,NA,NA,NA,NA,NA,NA,NA,NA,NA,2024-07-05_12h23.12.417,0,23T,NA,NA,NA,NA,Win32,NA,all_plots/23_spice_T_hi.png,22,NA,NA,NA,NA,NA,NA,NA,NA,NA,NA,NA,0.65625,NA,space,NA,NA,black,NA,NA,NA,NA,NA,1,NA,NA,NA,314.721,NA,NA,NA,NA,NA,NA,NA,NA,NA,NA,NA,NA,NA,NA,NA,2024.1.1,NA,NA,NA,NA,NA,NA,NA,2024-07-05_12h23.06.222,59.95203836930351,NA,NA,4.001000000000033,NA,NA,NA,NA,NA,NA,6687d791b4c592166f721382,2,TRUE,8
﻿Please look at the following plot and use the slider to estimate the level of relatedness.,NA,NA,NA,atypical_scatterplots_main_test_T,NA,NA,NA,66868c1df973f7ededaff065,NA,001,PARTICIPANT,14_spice_T_hi.png,atypical_scatterplots_main_T,NA,NA,NA,NA,NA,2.5790000000000077,26,26,NA,NA,NA,314.721,NA,NA,NA,NA,NA,NA,NA,NA,NA,NA,NA,NA,NA,2024-07-05_12h23.12.417,0,14T,NA,NA,NA,NA,Win32,NA,all_plots/14_spice_T_hi.png,13,NA,NA,NA,NA,NA,NA,NA,NA,NA,NA,NA,0.5914351851851852,NA,space,NA,NA,black,NA,NA,NA,NA,NA,1,NA,NA,NA,319.884,NA,NA,NA,NA,NA,NA,NA,NA,NA,NA,NA,NA,NA,NA,NA,2024.1.1,NA,NA,NA,NA,NA,NA,NA,2024-07-05_12h23.06.222,59.95203836930351,NA,NA,4.5919999999999845,NA,NA,NA,NA,NA,NA,6687d791b4c592166f721382,2,TRUE,8
﻿Please look at the following plot and use the slider to estimate the level of relatedness.,NA,NA,NA,atypical_scatterplots_main_test_T,NA,NA,NA,66868c1df973f7ededaff065,NA,001,PARTICIPANT,12_spice_T_hi.png,atypical_scatterplots_main_T,NA,NA,NA,NA,NA,1.965000000000032,27,27,NA,NA,NA,319.884,NA,NA,NA,NA,NA,NA,NA,NA,NA,NA,NA,NA,NA,2024-07-05_12h23.12.417,0,12T,NA,NA,NA,NA,Win32,NA,all_plots/12_spice_T_hi.png,11,NA,NA,NA,NA,NA,NA,NA,NA,NA,NA,NA,0.5671296296296297,NA,space,NA,NA,black,NA,NA,NA,NA,NA,1,NA,NA,NA,324.429,NA,NA,NA,NA,NA,NA,NA,NA,NA,NA,NA,NA,NA,NA,NA,2024.1.1,NA,NA,NA,NA,NA,NA,NA,2024-07-05_12h23.06.222,59.95203836930351,NA,NA,3.9419999999999504,NA,NA,NA,NA,NA,NA,6687d791b4c592166f721382,2,TRUE,8
﻿Please IGNORE the plot and set the slider to 1.,NA,NA,NA,atypical_scatterplots_main_test_T,NA,NA,NA,66868c1df973f7ededaff065,NA,001,PARTICIPANT,4_spice_T_hi.png,atypical_scatterplots_main_T,NA,NA,NA,NA,NA,3.0149999999999864,28,28,NA,NA,NA,324.43,NA,NA,NA,NA,NA,NA,NA,NA,NA,NA,NA,NA,NA,2024-07-05_12h23.12.417,0,49T,NA,NA,NA,NA,Win32,NA,all_plots/4_spice_T_hi.png,48,NA,NA,NA,NA,NA,NA,NA,NA,NA,NA,NA,1,NA,space,NA,NA,red,NA,NA,NA,NA,NA,1,NA,NA,NA,330.024,NA,NA,NA,NA,NA,NA,NA,NA,NA,NA,NA,NA,NA,NA,NA,2024.1.1,NA,NA,NA,NA,NA,NA,NA,2024-07-05_12h23.06.222,59.95203836930351,NA,NA,5.069000000000017,NA,NA,NA,NA,NA,NA,6687d791b4c592166f721382,2,TRUE,8
﻿Please look at the following plot and use the slider to estimate the level of relatedness.,NA,NA,NA,atypical_scatterplots_main_test_T,NA,NA,NA,66868c1df973f7ededaff065,NA,001,PARTICIPANT,3_spice_T_hi.png,atypical_scatterplots_main_T,NA,NA,NA,NA,NA,2.048000000000002,29,29,NA,NA,NA,330.025,NA,NA,NA,NA,NA,NA,NA,NA,NA,NA,NA,NA,NA,2024-07-05_12h23.12.417,0,3T,NA,NA,NA,NA,Win32,NA,all_plots/3_spice_T_hi.png,2,NA,NA,NA,NA,NA,NA,NA,NA,NA,NA,NA,0.5138888888888888,NA,space,NA,NA,black,NA,NA,NA,NA,NA,1,NA,NA,NA,334.653,NA,NA,NA,NA,NA,NA,NA,NA,NA,NA,NA,NA,NA,NA,NA,2024.1.1,NA,NA,NA,NA,NA,NA,NA,2024-07-05_12h23.06.222,59.95203836930351,NA,NA,4.04200000000003,NA,NA,NA,NA,NA,NA,6687d791b4c592166f721382,2,TRUE,8
﻿Please look at the following plot and use the slider to estimate the level of relatedness.,NA,NA,NA,atypical_scatterplots_main_test_T,NA,NA,NA,66868c1df973f7ededaff065,NA,001,PARTICIPANT,36_spice_T_hi.png,atypical_scatterplots_main_T,NA,NA,NA,NA,NA,1.7280000000000086,30,30,NA,NA,NA,334.655,NA,NA,NA,NA,NA,NA,NA,NA,NA,NA,NA,NA,NA,2024-07-05_12h23.12.417,0,36T,NA,NA,NA,NA,Win32,NA,all_plots/36_spice_T_hi.png,35,NA,NA,NA,NA,NA,NA,NA,NA,NA,NA,NA,0.8275462962962963,NA,space,NA,NA,black,NA,NA,NA,NA,NA,1,NA,NA,NA,338.967,NA,NA,NA,NA,NA,NA,NA,NA,NA,NA,NA,NA,NA,NA,NA,2024.1.1,NA,NA,NA,NA,NA,NA,NA,2024-07-05_12h23.06.222,59.95203836930351,NA,NA,3.826000000000022,NA,NA,NA,NA,NA,NA,6687d791b4c592166f721382,2,TRUE,8
﻿Please look at the following plot and use the slider to estimate the level of relatedness.,NA,NA,NA,atypical_scatterplots_main_test_T,NA,NA,NA,66868c1df973f7ededaff065,NA,001,PARTICIPANT,11_spice_T_hi.png,atypical_scatterplots_main_T,NA,NA,NA,NA,NA,1.913000000000011,31,31,NA,NA,NA,338.97,NA,NA,NA,NA,NA,NA,NA,NA,NA,NA,NA,NA,NA,2024-07-05_12h23.12.417,0,11T,NA,NA,NA,NA,Win32,NA,all_plots/11_spice_T_hi.png,10,NA,NA,NA,NA,NA,NA,NA,NA,NA,NA,NA,0.5347222222222222,NA,space,NA,NA,black,NA,NA,NA,NA,NA,1,NA,NA,NA,343.463,NA,NA,NA,NA,NA,NA,NA,NA,NA,NA,NA,NA,NA,NA,NA,2024.1.1,NA,NA,NA,NA,NA,NA,NA,2024-07-05_12h23.06.222,59.95203836930351,NA,NA,4.021999999999991,NA,NA,NA,NA,NA,NA,6687d791b4c592166f721382,2,TRUE,8
﻿Please look at the following plot and use the slider to estimate the level of relatedness.,NA,NA,NA,atypical_scatterplots_main_test_T,NA,NA,NA,66868c1df973f7ededaff065,NA,001,PARTICIPANT,35_spice_T_hi.png,atypical_scatterplots_main_T,NA,NA,NA,NA,NA,1.5860000000000127,32,32,NA,NA,NA,343.464,NA,NA,NA,NA,NA,NA,NA,NA,NA,NA,NA,NA,NA,2024-07-05_12h23.12.417,0,35T,NA,NA,NA,NA,Win32,NA,all_plots/35_spice_T_hi.png,34,NA,NA,NA,NA,NA,NA,NA,NA,NA,NA,NA,0.7905092592592593,NA,space,NA,NA,black,NA,NA,NA,NA,NA,1,NA,NA,NA,347.625,NA,NA,NA,NA,NA,NA,NA,NA,NA,NA,NA,NA,NA,NA,NA,2024.1.1,NA,NA,NA,NA,NA,NA,NA,2024-07-05_12h23.06.222,59.95203836930351,NA,NA,3.7870000000000346,NA,NA,NA,NA,NA,NA,6687d791b4c592166f721382,2,TRUE,8
﻿Please look at the following plot and use the slider to estimate the level of relatedness.,NA,NA,NA,atypical_scatterplots_main_test_T,NA,NA,NA,66868c1df973f7ededaff065,NA,001,PARTICIPANT,34_spice_T_hi.png,atypical_scatterplots_main_T,NA,NA,NA,NA,NA,1.6510000000000105,33,33,NA,NA,NA,347.625,NA,NA,NA,NA,NA,NA,NA,NA,NA,NA,NA,NA,NA,2024-07-05_12h23.12.417,0,34T,NA,NA,NA,NA,Win32,NA,all_plots/34_spice_T_hi.png,33,NA,NA,NA,NA,NA,NA,NA,NA,NA,NA,NA,0.8402777777777778,NA,space,NA,NA,black,NA,NA,NA,NA,NA,1,NA,NA,NA,351.856,NA,NA,NA,NA,NA,NA,NA,NA,NA,NA,NA,NA,NA,NA,NA,2024.1.1,NA,NA,NA,NA,NA,NA,NA,2024-07-05_12h23.06.222,59.95203836930351,NA,NA,3.867999999999995,NA,NA,NA,NA,NA,NA,6687d791b4c592166f721382,2,TRUE,8
﻿Please look at the following plot and use the slider to estimate the level of relatedness.,NA,NA,NA,atypical_scatterplots_main_test_T,NA,NA,NA,66868c1df973f7ededaff065,NA,001,PARTICIPANT,28_spice_T_hi.png,atypical_scatterplots_main_T,NA,NA,NA,NA,NA,1.509999999999991,34,34,NA,NA,NA,351.856,NA,NA,NA,NA,NA,NA,NA,NA,NA,NA,NA,NA,NA,2024-07-05_12h23.12.417,0,28T,NA,NA,NA,NA,Win32,NA,all_plots/28_spice_T_hi.png,27,NA,NA,NA,NA,NA,NA,NA,NA,NA,NA,NA,0.5914351851851852,NA,space,NA,NA,black,NA,NA,NA,NA,NA,1,NA,NA,NA,355.951,NA,NA,NA,NA,NA,NA,NA,NA,NA,NA,NA,NA,NA,NA,NA,2024.1.1,NA,NA,NA,NA,NA,NA,NA,2024-07-05_12h23.06.222,59.95203836930351,NA,NA,3.622000000000014,NA,NA,NA,NA,NA,NA,6687d791b4c592166f721382,2,TRUE,8
﻿Please look at the following plot and use the slider to estimate the level of relatedness.,NA,NA,NA,atypical_scatterplots_main_test_T,NA,NA,NA,66868c1df973f7ededaff065,NA,001,PARTICIPANT,31_spice_T_hi.png,atypical_scatterplots_main_T,NA,NA,NA,NA,NA,4.170999999999992,35,35,NA,NA,NA,355.951,NA,NA,NA,NA,NA,NA,NA,NA,NA,NA,NA,NA,NA,2024-07-05_12h23.12.417,0,31T,NA,NA,NA,NA,Win32,NA,all_plots/31_spice_T_hi.png,30,NA,NA,NA,NA,NA,NA,NA,NA,NA,NA,NA,0.744212962962963,NA,space,NA,NA,black,NA,NA,NA,NA,NA,1,NA,NA,NA,362.695,NA,NA,NA,NA,NA,NA,NA,NA,NA,NA,NA,NA,NA,NA,NA,2024.1.1,NA,NA,NA,NA,NA,NA,NA,2024-07-05_12h23.06.222,59.95203836930351,NA,NA,5.831999999999994,NA,NA,NA,NA,NA,NA,6687d791b4c592166f721382,2,TRUE,8
﻿Please look at the following plot and use the slider to estimate the level of relatedness.,NA,NA,NA,atypical_scatterplots_main_test_T,NA,NA,NA,66868c1df973f7ededaff065,NA,001,PARTICIPANT,30_spice_T_hi.png,atypical_scatterplots_main_T,NA,NA,NA,NA,NA,1.7799999999999727,36,36,NA,NA,NA,362.696,NA,NA,NA,NA,NA,NA,NA,NA,NA,NA,NA,NA,NA,2024-07-05_12h23.12.417,0,30T,NA,NA,NA,NA,Win32,NA,all_plots/30_spice_T_hi.png,29,NA,NA,NA,NA,NA,NA,NA,NA,NA,NA,NA,0.5763888888888888,NA,space,NA,NA,black,NA,NA,NA,NA,NA,1,NA,NA,NA,367.058,NA,NA,NA,NA,NA,NA,NA,NA,NA,NA,NA,NA,NA,NA,NA,2024.1.1,NA,NA,NA,NA,NA,NA,NA,2024-07-05_12h23.06.222,59.95203836930351,NA,NA,3.8999999999999777,NA,NA,NA,NA,NA,NA,6687d791b4c592166f721382,2,TRUE,8
﻿Please look at the following plot and use the slider to estimate the level of relatedness.,NA,NA,NA,atypical_scatterplots_main_test_T,NA,NA,NA,66868c1df973f7ededaff065,NA,001,PARTICIPANT,4_spice_T_hi.png,atypical_scatterplots_main_T,NA,NA,NA,NA,NA,1.7250000000000227,37,37,NA,NA,NA,367.059,NA,NA,NA,NA,NA,NA,NA,NA,NA,NA,NA,NA,NA,2024-07-05_12h23.12.417,0,4T,NA,NA,NA,NA,Win32,NA,all_plots/4_spice_T_hi.png,3,NA,NA,NA,NA,NA,NA,NA,NA,NA,NA,NA,0.5173611111111112,NA,space,NA,NA,black,NA,NA,NA,NA,NA,1,NA,NA,NA,371.372,NA,NA,NA,NA,NA,NA,NA,NA,NA,NA,NA,NA,NA,NA,NA,2024.1.1,NA,NA,NA,NA,NA,NA,NA,2024-07-05_12h23.06.222,59.95203836930351,NA,NA,3.849999999999966,NA,NA,NA,NA,NA,NA,6687d791b4c592166f721382,2,TRUE,8
﻿Please look at the following plot and use the slider to estimate the level of relatedness.,NA,NA,NA,atypical_scatterplots_main_test_T,NA,NA,NA,66868c1df973f7ededaff065,NA,001,PARTICIPANT,5_spice_T_hi.png,atypical_scatterplots_main_T,NA,NA,NA,NA,NA,2.1269999999999527,38,38,NA,NA,NA,371.373,NA,NA,NA,NA,NA,NA,NA,NA,NA,NA,NA,NA,NA,2024-07-05_12h23.12.417,0,5T,NA,NA,NA,NA,Win32,NA,all_plots/5_spice_T_hi.png,4,NA,NA,NA,NA,NA,NA,NA,NA,NA,NA,NA,0.47453703703703703,NA,space,NA,NA,black,NA,NA,NA,NA,NA,1,NA,NA,NA,376.084,NA,NA,NA,NA,NA,NA,NA,NA,NA,NA,NA,NA,NA,NA,NA,2024.1.1,NA,NA,NA,NA,NA,NA,NA,2024-07-05_12h23.06.222,59.95203836930351,NA,NA,4.116000000000042,NA,NA,NA,NA,NA,NA,6687d791b4c592166f721382,2,TRUE,8
﻿Please IGNORE the plot and set the slider to 1.,NA,NA,NA,atypical_scatterplots_main_test_T,NA,NA,NA,66868c1df973f7ededaff065,NA,001,PARTICIPANT,3_spice_T_hi.png,atypical_scatterplots_main_T,NA,NA,NA,NA,NA,2.334000000000003,39,39,NA,NA,NA,376.085,NA,NA,NA,NA,NA,NA,NA,NA,NA,NA,NA,NA,NA,2024-07-05_12h23.12.417,0,48T,NA,NA,NA,NA,Win32,NA,all_plots/3_spice_T_hi.png,47,NA,NA,NA,NA,NA,NA,NA,NA,NA,NA,NA,1,NA,space,NA,NA,red,NA,NA,NA,NA,NA,1,NA,NA,NA,380.996,NA,NA,NA,NA,NA,NA,NA,NA,NA,NA,NA,NA,NA,NA,NA,2024.1.1,NA,NA,NA,NA,NA,NA,NA,2024-07-05_12h23.06.222,59.95203836930351,NA,NA,4.3659999999999854,NA,NA,NA,NA,NA,NA,6687d791b4c592166f721382,2,TRUE,8
﻿Please look at the following plot and use the slider to estimate the level of relatedness.,NA,NA,NA,atypical_scatterplots_main_test_T,NA,NA,NA,66868c1df973f7ededaff065,NA,001,PARTICIPANT,1_spice_T_hi.png,atypical_scatterplots_main_T,NA,NA,NA,NA,NA,3.0469999999999686,40,40,NA,NA,NA,380.998,NA,NA,NA,NA,NA,NA,NA,NA,NA,NA,NA,NA,NA,2024-07-05_12h23.12.417,0,1T,NA,NA,NA,NA,Win32,NA,all_plots/1_spice_T_hi.png,0,NA,NA,NA,NA,NA,NA,NA,NA,NA,NA,NA,0.5034722222222222,NA,space,NA,NA,black,NA,NA,NA,NA,NA,1,NA,NA,NA,386.625,NA,NA,NA,NA,NA,NA,NA,NA,NA,NA,NA,NA,NA,NA,NA,2024.1.1,NA,NA,NA,NA,NA,NA,NA,2024-07-05_12h23.06.222,59.95203836930351,NA,NA,4.603999999999985,NA,NA,NA,NA,NA,NA,6687d791b4c592166f721382,2,TRUE,8
﻿Please look at the following plot and use the slider to estimate the level of relatedness.,NA,NA,NA,atypical_scatterplots_main_test_T,NA,NA,NA,66868c1df973f7ededaff065,NA,001,PARTICIPANT,22_spice_T_hi.png,atypical_scatterplots_main_T,NA,NA,NA,NA,NA,1.8349999999999795,41,41,NA,NA,NA,386.625,NA,NA,NA,NA,NA,NA,NA,NA,NA,NA,NA,NA,NA,2024-07-05_12h23.12.417,0,22T,NA,NA,NA,NA,Win32,NA,all_plots/22_spice_T_hi.png,21,NA,NA,NA,NA,NA,NA,NA,NA,NA,NA,NA,0.6759259259259259,NA,space,NA,NA,black,NA,NA,NA,NA,NA,1,NA,NA,NA,391.038,NA,NA,NA,NA,NA,NA,NA,NA,NA,NA,NA,NA,NA,NA,NA,2024.1.1,NA,NA,NA,NA,NA,NA,NA,2024-07-05_12h23.06.222,59.95203836930351,NA,NA,3.9329999999999927,NA,NA,NA,NA,NA,NA,6687d791b4c592166f721382,2,TRUE,8
﻿Please look at the following plot and use the slider to estimate the level of relatedness.,NA,NA,NA,atypical_scatterplots_main_test_T,NA,NA,NA,66868c1df973f7ededaff065,NA,001,PARTICIPANT,2_spice_T_hi.png,atypical_scatterplots_main_T,NA,NA,NA,NA,NA,2.1340000000000146,42,42,NA,NA,NA,391.038,NA,NA,NA,NA,NA,NA,NA,NA,NA,NA,NA,NA,NA,2024-07-05_12h23.12.417,0,2T,NA,NA,NA,NA,Win32,NA,all_plots/2_spice_T_hi.png,1,NA,NA,NA,NA,NA,NA,NA,NA,NA,NA,NA,0.5162037037037037,NA,space,NA,NA,black,NA,NA,NA,NA,NA,1,NA,NA,NA,395.75,NA,NA,NA,NA,NA,NA,NA,NA,NA,NA,NA,NA,NA,NA,NA,2024.1.1,NA,NA,NA,NA,NA,NA,NA,2024-07-05_12h23.06.222,59.95203836930351,NA,NA,4.199999999999989,NA,NA,NA,NA,NA,NA,6687d791b4c592166f721382,2,TRUE,8
