OS,avg_corr,slider_example_belief.response,instructions.stopped,exp_trial.started,intro.stopped,emotion_instructions.stopped,avg_emot,statement,expName,final.stopped,date,warning.started,slider_belief.rt,key_resp_exp.rt,demographics.started,item_no,belief_instructions.started,trials_loop.thisIndex,emotion_instructions.started,colour,frameRate,__session,emot_diff,__experimentName,study_id,belief_examples.started,key_resp_example_belief.keys,slider_example_belief.rt,key_resp_example_belief.rt,psychopyVersion,age_textbox.text,key_resp_exp.duration,trials_loop.thisN,trials_loop.thisRepN,key_resp_example_emotion.duration,gender_slider.response,key_resp_example_emotion.rt,debrief.stopped,key_resp_exp.keys,exp_trial.stopped,belief_instructions.stopped,slider_emotion.rt,demographics.stopped,debrief.started,corr_diff,consent.stopped,ready.stopped,ready.started,__participant,emotion_example.stopped,trials_loop.ran,trials_loop.thisTrialN,label,intro.started,consent.started,slider_example_emotion.rt,instructions.started,final.started,slider_belief.response,key_resp_example_emotion.keys,emotion_example.started,belief_examples.stopped,__datetime,warning.stopped,slider_example_emotion.response,slider_emotion.response,session,total_correct,passed,participant
ýýýWin32,NA,NA,NA,NA,7.620299999952317,NA,NA,NA,beliefs_scatterplots_pretest,NA,2024-05-23_07h03.54.081,NA,NA,NA,NA,NA,NA,NA,NA,NA,59.88023952095874,001,NA,beliefs_scatterplots_pretest,664ed6ba62fd8adeb1015beb,NA,NA,NA,NA,2024.1.1,NA,NA,NA,NA,NA,NA,NA,NA,NA,NA,NA,NA,NA,NA,NA,NA,NA,NA,PARTICIPANT,NA,NA,NA,NA,3.999999761568e-4,NA,NA,NA,NA,NA,NA,NA,NA,2024-05-23_07h03.48.018,NA,NA,NA,664edc38fdd24438553309f9,6,TRUE,12
ýýýWin32,NA,NA,NA,NA,NA,NA,NA,NA,beliefs_scatterplots_pretest,NA,2024-05-23_07h03.54.081,69.19560000002384,NA,NA,NA,NA,NA,NA,NA,NA,59.88023952095874,001,NA,beliefs_scatterplots_pretest,664ed6ba62fd8adeb1015beb,NA,NA,NA,NA,2024.1.1,NA,NA,NA,NA,NA,NA,NA,NA,NA,NA,NA,NA,NA,NA,NA,69.19460000002385,NA,NA,PARTICIPANT,NA,NA,NA,NA,NA,67.6517,NA,NA,NA,NA,NA,NA,NA,2024-05-23_07h03.48.018,76.911,NA,NA,664edc38fdd24438553309f9,6,TRUE,12
ýýýWin32,NA,NA,NA,NA,NA,NA,NA,NA,beliefs_scatterplots_pretest,NA,2024-05-23_07h03.54.081,NA,NA,NA,76.91129999995232,NA,NA,NA,NA,NA,59.88023952095874,001,NA,beliefs_scatterplots_pretest,664ed6ba62fd8adeb1015beb,NA,NA,NA,NA,2024.1.1,56,NA,NA,NA,NA,Female,NA,NA,NA,NA,NA,NA,86.94250000000001,NA,NA,NA,NA,NA,PARTICIPANT,NA,NA,NA,NA,NA,NA,NA,NA,NA,NA,NA,NA,NA,2024-05-23_07h03.48.018,NA,NA,NA,664edc38fdd24438553309f9,6,TRUE,12
ýýýWin32,NA,NA,138.41929999995233,NA,NA,151.9687000000477,NA,NA,beliefs_scatterplots_pretest,NA,2024-05-23_07h03.54.081,NA,NA,NA,NA,NA,NA,NA,138.42039999997615,NA,59.88023952095874,001,NA,beliefs_scatterplots_pretest,664ed6ba62fd8adeb1015beb,NA,NA,NA,NA,2024.1.1,NA,NA,NA,NA,NA,NA,NA,NA,NA,NA,NA,NA,NA,NA,NA,NA,NA,NA,PARTICIPANT,NA,NA,NA,NA,NA,NA,NA,128.091,NA,NA,NA,NA,NA,2024-05-23_07h03.48.018,NA,NA,NA,664edc38fdd24438553309f9,6,TRUE,12
ýýýWin32,NA,NA,NA,NA,NA,NA,NA,NA,beliefs_scatterplots_pretest,NA,2024-05-23_07h03.54.081,NA,NA,NA,NA,NA,NA,NA,NA,NA,59.88023952095874,001,NA,beliefs_scatterplots_pretest,664ed6ba62fd8adeb1015beb,NA,NA,NA,NA,2024.1.1,NA,NA,NA,NA,NA,NA,6.715000000000003,NA,NA,NA,NA,NA,NA,NA,NA,NA,NA,NA,PARTICIPANT,171.6772000000477,NA,NA,NA,NA,NA,12.961199999928482,NA,NA,NA,space,151.96910000002384,NA,2024-05-23_07h03.48.018,NA,4,NA,664edc38fdd24438553309f9,6,TRUE,12
ýýýWin32,NA,NA,NA,NA,NA,NA,NA,NA,beliefs_scatterplots_pretest,NA,2024-05-23_07h03.54.081,NA,NA,NA,NA,NA,171.69,NA,NA,NA,59.88023952095874,001,NA,beliefs_scatterplots_pretest,664ed6ba62fd8adeb1015beb,NA,NA,NA,NA,2024.1.1,NA,NA,NA,NA,NA,NA,NA,NA,NA,NA,187.716,NA,NA,NA,NA,NA,NA,NA,PARTICIPANT,NA,NA,NA,NA,NA,NA,NA,NA,NA,NA,NA,NA,NA,2024-05-23_07h03.48.018,NA,NA,NA,664edc38fdd24438553309f9,6,TRUE,12
ýýýWin32,NA,4,NA,NA,NA,NA,NA,NA,beliefs_scatterplots_pretest,NA,2024-05-23_07h03.54.081,NA,NA,NA,NA,NA,NA,NA,NA,NA,59.88023952095874,001,NA,beliefs_scatterplots_pretest,664ed6ba62fd8adeb1015beb,187.71620000004768,space,13.008500000000026,2.033599999904652,2024.1.1,NA,NA,NA,NA,NA,NA,NA,NA,NA,NA,NA,NA,NA,NA,NA,NA,NA,NA,PARTICIPANT,NA,NA,NA,NA,NA,NA,NA,NA,NA,NA,NA,NA,202.7902000000477,2024-05-23_07h03.48.018,NA,NA,NA,664edc38fdd24438553309f9,6,TRUE,12
ýýýWin32,NA,NA,NA,NA,NA,NA,NA,NA,beliefs_scatterplots_pretest,NA,2024-05-23_07h03.54.081,NA,NA,NA,NA,NA,NA,NA,NA,NA,59.88023952095874,001,NA,beliefs_scatterplots_pretest,664ed6ba62fd8adeb1015beb,NA,NA,NA,NA,2024.1.1,NA,NA,NA,NA,NA,NA,NA,NA,NA,NA,NA,NA,NA,NA,NA,NA,207.9885,202.79039999997616,PARTICIPANT,NA,NA,NA,NA,NA,NA,NA,NA,NA,NA,NA,NA,NA,2024-05-23_07h03.48.018,NA,NA,NA,664edc38fdd24438553309f9,6,TRUE,12
ýýýWin32,5.5,NA,NA,208.00610000002385,NA,NA,4,Higher levels of civic engagement are linked to a stronger sense of community.,beliefs_scatterplots_pretest,NA,2024-05-23_07h03.54.081,NA,24.66200000000001,3.432799999952323,NA,9,NA,8,NA,black,59.88023952095874,001,0,beliefs_scatterplots_pretest,664ed6ba62fd8adeb1015beb,NA,NA,NA,NA,2024.1.1,NA,NA,0,0,NA,NA,NA,NA,space,236.1197000000477,NA,14.11330000007152,NA,NA,1,NA,NA,NA,PARTICIPANT,NA,1,0,high_corr,NA,NA,NA,NA,NA,5,NA,NA,NA,2024-05-23_07h03.48.018,NA,NA,5,664edc38fdd24438553309f9,6,TRUE,12
ýýýWin32,3.5,NA,NA,236.12120000004768,NA,NA,3,"As the amount of sleep decreases, the risk of obesity increases.",beliefs_scatterplots_pretest,NA,2024-05-23_07h03.54.081,NA,23.90970000004768,1.4836000000238414,NA,16,NA,15,NA,black,59.88023952095874,001,0,beliefs_scatterplots_pretest,664ed6ba62fd8adeb1015beb,NA,NA,NA,NA,2024.1.1,NA,NA,1,0,NA,NA,NA,NA,space,261.5376000000238,NA,16.187799999952347,NA,NA,1,NA,NA,NA,PARTICIPANT,NA,1,1,low_corr,NA,NA,NA,NA,NA,3,NA,NA,NA,2024-05-23_07h03.48.018,NA,NA,3,664edc38fdd24438553309f9,6,TRUE,12
ýýýWin32,6.5,NA,NA,261.53860000002385,NA,NA,4.5,"As access to clean water improves, the incidence of waterborne diseases decreases.",beliefs_scatterplots_pretest,NA,2024-05-23_07h03.54.081,NA,11.539399999976126,1.3782000000476842,NA,6,NA,5,NA,black,59.88023952095874,001,1,beliefs_scatterplots_pretest,664ed6ba62fd8adeb1015beb,NA,NA,NA,NA,2024.1.1,NA,NA,2,0,NA,NA,NA,NA,space,274.47479999995227,NA,8.156000000000006,NA,NA,1,NA,NA,NA,PARTICIPANT,NA,1,2,high_corr,NA,NA,NA,NA,NA,7,NA,NA,NA,2024-05-23_07h03.48.018,NA,NA,7,664edc38fdd24438553309f9,6,TRUE,12
ýýýWin32,5.5,NA,NA,274.47570000004765,NA,NA,5,Higher levels of empathy are linked to stronger interpersonal relationships.,beliefs_scatterplots_pretest,NA,2024-05-23_07h03.54.081,NA,11.41929999995233,1.1681999999284471,NA,7,NA,6,NA,black,59.88023952095874,001,2,beliefs_scatterplots_pretest,664ed6ba62fd8adeb1015beb,NA,NA,NA,NA,2024.1.1,NA,NA,3,0,NA,NA,NA,NA,space,287.0842999999523,NA,9.471200000047643,NA,NA,1,NA,NA,NA,PARTICIPANT,NA,1,3,high_corr,NA,NA,NA,NA,NA,7,NA,NA,NA,2024-05-23_07h03.48.018,NA,NA,7,664edc38fdd24438553309f9,6,TRUE,12
ýýýWin32,2.5,NA,NA,287.0853999999761,NA,NA,4,Higher consumption of nuts and seeds is associated with reduced risk of cardiovascular diseases.,beliefs_scatterplots_pretest,NA,2024-05-23_07h03.54.081,NA,9.457799999952329,1.0188999999761563,NA,24,NA,23,NA,black,59.88023952095874,001,2,beliefs_scatterplots_pretest,664ed6ba62fd8adeb1015beb,NA,NA,NA,NA,2024.1.1,NA,NA,4,0,NA,NA,NA,NA,space,297.5831000000238,NA,6.724800000071525,NA,NA,1,NA,NA,NA,PARTICIPANT,NA,1,4,low_corr,NA,NA,NA,NA,NA,6,NA,NA,NA,2024-05-23_07h03.48.018,NA,NA,6,664edc38fdd24438553309f9,6,TRUE,12
ýýýWin32,3,NA,NA,297.58420000004764,NA,NA,5,Greater exposure to music education is linked to enhanced cognitive development in children.,beliefs_scatterplots_pretest,NA,2024-05-23_07h03.54.081,NA,16.819999999999993,1.6686999999284922,NA,18,NA,17,NA,black,59.88023952095874,001,2,beliefs_scatterplots_pretest,664ed6ba62fd8adeb1015beb,NA,NA,NA,NA,2024.1.1,NA,NA,5,0,NA,NA,NA,NA,space,316.0925,NA,10.22399999999999,NA,NA,0,NA,NA,NA,PARTICIPANT,NA,1,5,low_corr,NA,NA,NA,NA,NA,4,NA,NA,NA,2024-05-23_07h03.48.018,NA,NA,5,664edc38fdd24438553309f9,6,TRUE,12
ýýýWin32,3,NA,NA,316.09299999999996,NA,NA,4.5,"As participation in community arts programs increases, local cultural engagement tends to rise.",beliefs_scatterplots_pretest,NA,2024-05-23_07h03.54.081,NA,11.94570000004768,0.8003999999761504,NA,21,NA,20,NA,black,59.88023952095874,001,1,beliefs_scatterplots_pretest,664ed6ba62fd8adeb1015beb,NA,NA,NA,NA,2024.1.1,NA,NA,6,0,NA,NA,NA,NA,space,328.86249999999995,NA,9.513299999952324,NA,NA,2,NA,NA,NA,PARTICIPANT,NA,1,6,low_corr,NA,NA,NA,NA,NA,5,NA,NA,NA,2024-05-23_07h03.48.018,NA,NA,5,664edc38fdd24438553309f9,6,TRUE,12
ýýýWin32,NA,NA,NA,328.86339999997614,NA,NA,NA,Please set both sliders to 1.,beliefs_scatterplots_pretest,NA,2024-05-23_07h03.54.081,NA,24.621400000095377,1.9399999999999975,NA,31,NA,30,NA,red,59.88023952095874,001,NA,beliefs_scatterplots_pretest,664ed6ba62fd8adeb1015beb,NA,NA,NA,NA,2024.1.1,NA,NA,7,0,NA,NA,NA,NA,space,355.4447999999523,NA,18.039399999976126,NA,NA,NA,NA,NA,NA,PARTICIPANT,NA,1,7,AC,NA,NA,NA,NA,NA,1,NA,NA,NA,2024-05-23_07h03.48.018,NA,NA,1,664edc38fdd24438553309f9,6,TRUE,12
ýýýWin32,3,NA,NA,355.4452999999523,NA,NA,4,Greater adherence to a Mediterranean diet is linked to a lower risk of neurodegenerative diseases.,beliefs_scatterplots_pretest,NA,2024-05-23_07h03.54.081,NA,17.33850000000001,0.8522999999523222,NA,23,NA,22,NA,black,59.88023952095874,001,0,beliefs_scatterplots_pretest,664ed6ba62fd8adeb1015beb,NA,NA,NA,NA,2024.1.1,NA,NA,8,0,NA,NA,NA,NA,space,373.6567000000477,NA,15.005300000071545,NA,NA,2,NA,NA,NA,PARTICIPANT,NA,1,8,low_corr,NA,NA,NA,NA,NA,7,NA,NA,NA,2024-05-23_07h03.48.018,NA,NA,7,664edc38fdd24438553309f9,6,TRUE,12
ýýýWin32,5.5,NA,NA,373.6577999999523,NA,NA,3,"As soil quality degrades, agricultural productivity tends to decrease.",beliefs_scatterplots_pretest,NA,2024-05-23_07h03.54.081,NA,17.294700000047726,1.385499999999979,NA,8,NA,7,NA,black,59.88023952095874,001,2,beliefs_scatterplots_pretest,664ed6ba62fd8adeb1015beb,NA,NA,NA,NA,2024.1.1,NA,NA,9,0,NA,NA,NA,NA,space,392.35410000002383,NA,11.158099999904609,NA,NA,1,NA,NA,NA,PARTICIPANT,NA,1,9,high_corr,NA,NA,NA,NA,NA,7,NA,NA,NA,2024-05-23_07h03.48.018,NA,NA,2,664edc38fdd24438553309f9,6,TRUE,12
ýýýWin32,6.5,NA,NA,392.3548999999761,NA,NA,3,Greater use of helmets is associated with a lower incidence of head injuries in cyclists.,beliefs_scatterplots_pretest,NA,2024-05-23_07h03.54.081,NA,8.7724,1.0678999999761911,NA,4,NA,3,NA,black,59.88023952095874,001,2,beliefs_scatterplots_pretest,664ed6ba62fd8adeb1015beb,NA,NA,NA,NA,2024.1.1,NA,NA,10,0,NA,NA,NA,NA,space,402.2152999999523,NA,6.756799999952307,NA,NA,1,NA,NA,NA,PARTICIPANT,NA,1,10,high_corr,NA,NA,NA,NA,NA,7,NA,NA,NA,2024-05-23_07h03.48.018,NA,NA,7,664edc38fdd24438553309f9,6,TRUE,12
ýýýWin32,3.5,NA,NA,402.21570000004766,NA,NA,4,Greater water consumption is linked to improved kidney function.,beliefs_scatterplots_pretest,NA,2024-05-23_07h03.54.081,NA,9.327899999976182,1.0925000000000296,NA,15,NA,14,NA,black,59.88023952095874,001,0,beliefs_scatterplots_pretest,664ed6ba62fd8adeb1015beb,NA,NA,NA,NA,2024.1.1,NA,NA,11,0,NA,NA,NA,NA,space,412.6557999999523,NA,7.1452,NA,NA,1,NA,NA,NA,PARTICIPANT,NA,1,11,low_corr,NA,NA,NA,NA,NA,7,NA,NA,NA,2024-05-23_07h03.48.018,NA,NA,7,664edc38fdd24438553309f9,6,TRUE,12
ýýýWin32,7,NA,NA,412.65710000002383,NA,NA,4,"As the quality of healthcare improves, life expectancy tends to increase.",beliefs_scatterplots_pretest,NA,2024-05-23_07h03.54.081,NA,11.05200000000002,0.8845000000000027,NA,5,NA,4,NA,black,59.88023952095874,001,2,beliefs_scatterplots_pretest,664ed6ba62fd8adeb1015beb,NA,NA,NA,NA,2024.1.1,NA,NA,12,0,NA,NA,NA,NA,space,424.6177999999523,NA,9.119399999976167,NA,NA,0,NA,NA,NA,PARTICIPANT,NA,1,12,high_corr,NA,NA,NA,NA,NA,7,NA,NA,NA,2024-05-23_07h03.48.018,NA,NA,7,664edc38fdd24438553309f9,6,TRUE,12
ýýýWin32,3.5,NA,NA,424.6195,NA,NA,5,Higher frequency of family meals is linked to better eating habits in children.,beliefs_scatterplots_pretest,NA,2024-05-23_07h03.54.081,NA,12.117600000023856,0.8851,NA,20,NA,19,NA,black,59.88023952095874,001,2,beliefs_scatterplots_pretest,664ed6ba62fd8adeb1015beb,NA,NA,NA,NA,2024.1.1,NA,NA,13,0,NA,NA,NA,NA,space,437.6442000000477,NA,8.899899999976128,NA,NA,1,NA,NA,NA,PARTICIPANT,NA,1,13,low_corr,NA,NA,NA,NA,NA,7,NA,NA,NA,2024-05-23_07h03.48.018,NA,NA,7,664edc38fdd24438553309f9,6,TRUE,12
ýýýWin32,NA,NA,NA,437.6447000000477,NA,NA,NA,Please set both sliders to 1.,beliefs_scatterplots_pretest,NA,2024-05-23_07h03.54.081,NA,8.464699999928484,4.249699999928453,NA,30,NA,29,NA,red,59.88023952095874,001,NA,beliefs_scatterplots_pretest,664ed6ba62fd8adeb1015beb,NA,NA,NA,NA,2024.1.1,NA,NA,14,0,NA,NA,NA,NA,space,450.38060000002383,NA,5.864299999952266,NA,NA,NA,NA,NA,NA,PARTICIPANT,NA,1,14,AC,NA,NA,NA,NA,NA,1,NA,NA,NA,2024-05-23_07h03.48.018,NA,NA,1,664edc38fdd24438553309f9,6,TRUE,12
ýýýWin32,3.5,NA,NA,450.39389999997616,NA,NA,4.5,Greater intake of omega-3 fatty acids is associated with lower inflammation levels.,beliefs_scatterplots_pretest,NA,2024-05-23_07h03.54.081,NA,14.908999999999992,2.417300000071521,NA,17,NA,16,NA,black,59.88023952095874,001,1,beliefs_scatterplots_pretest,664ed6ba62fd8adeb1015beb,NA,NA,NA,NA,2024.1.1,NA,NA,15,0,NA,NA,NA,NA,space,467.74039999997615,NA,8.942699999928493,NA,NA,1,NA,NA,NA,PARTICIPANT,NA,1,15,low_corr,NA,NA,NA,NA,NA,6,NA,NA,NA,2024-05-23_07h03.48.018,NA,NA,6,664edc38fdd24438553309f9,6,TRUE,12
ýýýWin32,NA,NA,NA,467.74110000002383,NA,NA,NA,Please set both sliders to 7.,beliefs_scatterplots_pretest,NA,2024-05-23_07h03.54.081,NA,7.667200000047728,2.9501000000238378,NA,26,NA,25,NA,red,59.88023952095874,001,NA,beliefs_scatterplots_pretest,664ed6ba62fd8adeb1015beb,NA,NA,NA,NA,2024.1.1,NA,NA,16,0,NA,NA,NA,NA,space,478.3771000000238,NA,4.463399999976161,NA,NA,NA,NA,NA,NA,PARTICIPANT,NA,1,16,AC,NA,NA,NA,NA,NA,7,NA,NA,NA,2024-05-23_07h03.48.018,NA,NA,7,664edc38fdd24438553309f9,6,TRUE,12
ýýýWin32,6.5,NA,NA,478.3782000000477,NA,NA,4.5,Increased use of energy-efficient appliances is associated with lower electricity bills.,beliefs_scatterplots_pretest,NA,2024-05-23_07h03.54.081,NA,18.390199999928484,0.8504999999999541,NA,12,NA,11,NA,black,59.88023952095874,001,1,beliefs_scatterplots_pretest,664ed6ba62fd8adeb1015beb,NA,NA,NA,NA,2024.1.1,NA,NA,17,0,NA,NA,NA,NA,space,497.64139999997616,NA,9.8227,NA,NA,1,NA,NA,NA,PARTICIPANT,NA,1,17,high_corr,NA,NA,NA,NA,NA,6,NA,NA,NA,2024-05-23_07h03.48.018,NA,NA,6,664edc38fdd24438553309f9,6,TRUE,12
ýýýWin32,5.5,NA,NA,497.64239999997613,NA,NA,4,Greater frequency of exercise is linked to a lower risk of depression.,beliefs_scatterplots_pretest,NA,2024-05-23_07h03.54.081,NA,16.672600000023806,1.0345,NA,3,NA,2,NA,black,59.88023952095874,001,2,beliefs_scatterplots_pretest,664ed6ba62fd8adeb1015beb,NA,NA,NA,NA,2024.1.1,NA,NA,18,0,NA,NA,NA,NA,space,515.3682999999523,NA,12.319099999904552,NA,NA,1,NA,NA,NA,PARTICIPANT,NA,1,18,high_corr,NA,NA,NA,NA,NA,7,NA,NA,NA,2024-05-23_07h03.48.018,NA,NA,7,664edc38fdd24438553309f9,6,TRUE,12
ýýýWin32,1,NA,NA,515.3697999999523,NA,NA,3,Higher exposure to air conditioning is associated with increased respiratory issues.,beliefs_scatterplots_pretest,NA,2024-05-23_07h03.54.081,NA,14.274199999928442,1.6190000000000282,NA,19,NA,18,NA,black,59.88023952095874,001,2,beliefs_scatterplots_pretest,664ed6ba62fd8adeb1015beb,NA,NA,NA,NA,2024.1.1,NA,NA,19,0,NA,NA,NA,NA,space,531.288,NA,8.125099999904592,NA,NA,0,NA,NA,NA,PARTICIPANT,NA,1,19,low_corr,NA,NA,NA,NA,NA,6,NA,NA,NA,2024-05-23_07h03.48.018,NA,NA,2,664edc38fdd24438553309f9,6,TRUE,12
ýýýWin32,6,NA,NA,531.2887000000477,NA,NA,3,Higher sugar consumption is associated with an increased risk of dental cavities.,beliefs_scatterplots_pretest,NA,2024-05-23_07h03.54.081,NA,20.857100000023937,1.703599999904668,NA,10,NA,9,NA,black,59.88023952095874,001,0,beliefs_scatterplots_pretest,664ed6ba62fd8adeb1015beb,NA,NA,NA,NA,2024.1.1,NA,NA,20,0,NA,NA,NA,NA,space,553.8683999999762,NA,12.15689999997619,NA,NA,2,NA,NA,NA,PARTICIPANT,NA,1,20,high_corr,NA,NA,NA,NA,NA,7,NA,NA,NA,2024-05-23_07h03.48.018,NA,NA,1,664edc38fdd24438553309f9,6,TRUE,12
ýýýWin32,3,NA,NA,553.8687999999523,NA,NA,4.5,"As cultural preservation efforts increase, community identity and cohesion tend to strengthen.",beliefs_scatterplots_pretest,NA,2024-05-23_07h03.54.081,NA,31.937999999999988,1.999900000095295,NA,25,NA,24,NA,black,59.88023952095874,001,1,beliefs_scatterplots_pretest,664ed6ba62fd8adeb1015beb,NA,NA,NA,NA,2024.1.1,NA,NA,21,0,NA,NA,NA,NA,space,587.8311000000239,NA,24.622200000047656,NA,NA,0,NA,NA,NA,PARTICIPANT,NA,1,21,low_corr,NA,NA,NA,NA,NA,4,NA,NA,NA,2024-05-23_07h03.48.018,NA,NA,6,664edc38fdd24438553309f9,6,TRUE,12
ýýýWin32,2.5,NA,NA,587.8316000000239,NA,NA,4.5,Higher consumption of spicy foods is associated with a lower risk of certain types of cancer.,beliefs_scatterplots_pretest,NA,2024-05-23_07h03.54.081,NA,10.840000000000032,1.0020000000000664,NA,22,NA,21,NA,black,59.88023952095874,001,1,beliefs_scatterplots_pretest,664ed6ba62fd8adeb1015beb,NA,NA,NA,NA,2024.1.1,NA,NA,22,0,NA,NA,NA,NA,space,599.6961000000239,NA,8.357199999928525,NA,NA,1,NA,NA,NA,PARTICIPANT,NA,1,22,low_corr,NA,NA,NA,NA,NA,6,NA,NA,NA,2024-05-23_07h03.48.018,NA,NA,7,664edc38fdd24438553309f9,6,TRUE,12
ýýýWin32,6.5,NA,NA,599.6966000000239,NA,NA,4.5,Increased exposure to sunlight is correlated with higher vitamin D levels.,beliefs_scatterplots_pretest,NA,2024-05-23_07h03.54.081,NA,10.7237,10.393700000047716,NA,1,NA,0,NA,black,59.88023952095874,001,1,beliefs_scatterplots_pretest,664ed6ba62fd8adeb1015beb,NA,NA,NA,NA,2024.1.1,NA,NA,23,0,NA,NA,NA,NA,space,620.8326000000238,NA,19.10489999997617,NA,NA,1,NA,NA,NA,PARTICIPANT,NA,1,23,high_corr,NA,NA,NA,NA,NA,7,NA,NA,NA,2024-05-23_07h03.48.018,NA,NA,6,664edc38fdd24438553309f9,6,TRUE,12
ýýýWin32,NA,NA,NA,620.8332000000477,NA,NA,NA,Please set both sliders to 7.,beliefs_scatterplots_pretest,NA,2024-05-23_07h03.54.081,NA,7.902699999928473,1.833600000023921,NA,28,NA,27,NA,red,59.88023952095874,001,NA,beliefs_scatterplots_pretest,664ed6ba62fd8adeb1015beb,NA,NA,NA,NA,2024.1.1,NA,NA,24,0,NA,NA,NA,NA,space,630.5916000000238,NA,5.57,NA,NA,NA,NA,NA,NA,PARTICIPANT,NA,1,24,AC,NA,NA,NA,NA,NA,7,NA,NA,NA,2024-05-23_07h03.48.018,NA,NA,7,664edc38fdd24438553309f9,6,TRUE,12
ýýýWin32,NA,NA,NA,630.5925,NA,NA,NA,Please set both sliders to 7.,beliefs_scatterplots_pretest,NA,2024-05-23_07h03.54.081,NA,8.690000000000055,1.9840000000000373,NA,27,NA,26,NA,red,59.88023952095874,001,NA,beliefs_scatterplots_pretest,664ed6ba62fd8adeb1015beb,NA,NA,NA,NA,2024.1.1,NA,NA,25,0,NA,NA,NA,NA,space,641.285,NA,6.440799999952333,NA,NA,NA,NA,NA,NA,PARTICIPANT,NA,1,25,AC,NA,NA,NA,NA,NA,7,NA,NA,NA,2024-05-23_07h03.48.018,NA,NA,7,664edc38fdd24438553309f9,6,TRUE,12
ýýýWin32,NA,NA,NA,641.2855,NA,NA,NA,Please set both sliders to 1.,beliefs_scatterplots_pretest,NA,2024-05-23_07h03.54.081,NA,7.080599999904734,2.2999999999999545,NA,29,NA,28,NA,red,59.88023952095874,001,NA,beliefs_scatterplots_pretest,664ed6ba62fd8adeb1015beb,NA,NA,NA,NA,2024.1.1,NA,NA,26,0,NA,NA,NA,NA,space,650.6892999999523,NA,3.948100000023828,NA,NA,NA,NA,NA,NA,PARTICIPANT,NA,1,26,AC,NA,NA,NA,NA,NA,1,NA,NA,NA,2024-05-23_07h03.48.018,NA,NA,1,664edc38fdd24438553309f9,6,TRUE,12
ýýýWin32,6,NA,NA,650.6901000000238,NA,NA,3,Higher attendance at preventive health screenings is linked to earlier detection of diseases.,beliefs_scatterplots_pretest,NA,2024-05-23_07h03.54.081,NA,20.890200000047685,0.8502000000476073,NA,11,NA,10,NA,black,59.88023952095874,001,2,beliefs_scatterplots_pretest,664ed6ba62fd8adeb1015beb,NA,NA,NA,NA,2024.1.1,NA,NA,27,0,NA,NA,NA,NA,space,672.4528999999761,NA,17.20779999995227,NA,NA,0,NA,NA,NA,PARTICIPANT,NA,1,27,high_corr,NA,NA,NA,NA,NA,7,NA,NA,NA,2024-05-23_07h03.48.018,NA,NA,7,664edc38fdd24438553309f9,6,TRUE,12
ýýýWin32,6,NA,NA,672.4538999999761,NA,NA,4.5,Greater regularity in sleep patterns is associated with improved mental health.,beliefs_scatterplots_pretest,NA,2024-05-23_07h03.54.081,NA,18.426799999952323,1.7662000000477749,NA,14,NA,13,NA,black,59.88023952095874,001,1,beliefs_scatterplots_pretest,664ed6ba62fd8adeb1015beb,NA,NA,NA,NA,2024.1.1,NA,NA,28,0,NA,NA,NA,NA,space,692.6672999999523,NA,16.261100000023816,NA,NA,2,NA,NA,NA,PARTICIPANT,NA,1,28,high_corr,NA,NA,NA,NA,NA,6,NA,NA,NA,2024-05-23_07h03.48.018,NA,NA,6,664edc38fdd24438553309f9,6,TRUE,12
ýýýWin32,6.5,NA,NA,692.6682999999523,NA,NA,5,"As pedestrian-friendly infrastructure improves, urban walkability tends to increase.",beliefs_scatterplots_pretest,NA,2024-05-23_07h03.54.081,NA,12.957600000023833,0.8667999999522635,NA,13,NA,12,NA,black,59.88023952095874,001,2,beliefs_scatterplots_pretest,664ed6ba62fd8adeb1015beb,NA,NA,NA,NA,2024.1.1,NA,NA,29,0,NA,NA,NA,NA,space,706.5156000000238,NA,10.274899999976242,NA,NA,1,NA,NA,NA,PARTICIPANT,NA,1,29,high_corr,NA,NA,NA,NA,NA,5,NA,NA,NA,2024-05-23_07h03.48.018,NA,NA,6,664edc38fdd24438553309f9,6,TRUE,12
ýýýWin32,6.5,NA,NA,706.5165,NA,NA,4,"As caffeine consumption increases, so does the average heart rate.",beliefs_scatterplots_pretest,NA,2024-05-23_07h03.54.081,NA,15.355699999928447,1.900199999928418,NA,2,NA,1,NA,black,59.88023952095874,001,0,beliefs_scatterplots_pretest,664ed6ba62fd8adeb1015beb,NA,NA,NA,NA,2024.1.1,NA,NA,30,0,NA,NA,NA,NA,space,723.7914999999999,NA,11.656899999976076,NA,NA,1,NA,NA,NA,PARTICIPANT,NA,1,30,high_corr,NA,NA,NA,NA,NA,5,NA,NA,NA,2024-05-23_07h03.48.018,NA,NA,3,664edc38fdd24438553309f9,6,TRUE,12
ýýýWin32,NA,NA,NA,NA,NA,NA,NA,NA,beliefs_scatterplots_pretest,NA,2024-05-23_07h03.54.081,NA,NA,NA,NA,NA,NA,NA,NA,NA,59.88023952095874,001,NA,beliefs_scatterplots_pretest,664ed6ba62fd8adeb1015beb,NA,NA,NA,NA,2024.1.1,NA,NA,NA,NA,NA,NA,NA,739.7622000000476,NA,NA,NA,NA,NA,723.7926000000239,NA,NA,NA,NA,PARTICIPANT,NA,NA,NA,NA,NA,NA,NA,NA,NA,NA,NA,NA,NA,2024-05-23_07h03.48.018,NA,NA,NA,664edc38fdd24438553309f9,6,TRUE,12
ýýýWin32,NA,NA,NA,NA,NA,NA,NA,NA,beliefs_scatterplots_pretest,744.6298999999761,2024-05-23_07h03.54.081,NA,NA,NA,NA,NA,NA,NA,NA,NA,59.88023952095874,001,NA,beliefs_scatterplots_pretest,664ed6ba62fd8adeb1015beb,NA,NA,NA,NA,2024.1.1,NA,NA,NA,NA,NA,NA,NA,NA,NA,NA,NA,NA,NA,NA,NA,NA,NA,NA,PARTICIPANT,NA,NA,NA,NA,NA,NA,NA,NA,739.7622999999523,NA,NA,NA,NA,2024-05-23_07h03.48.018,NA,NA,NA,664edc38fdd24438553309f9,6,TRUE,12
ýýýMacIntel,NA,NA,NA,NA,4.8020000000000005,NA,NA,NA,beliefs_scatterplots_pretest,NA,2024-05-23_07h11.18.386,NA,NA,NA,NA,NA,NA,NA,NA,NA,111.11111111111111,001,NA,beliefs_scatterplots_pretest,664ed6ba62fd8adeb1015beb,NA,NA,NA,NA,2024.1.1,NA,NA,NA,NA,NA,NA,NA,NA,NA,NA,NA,NA,NA,NA,NA,NA,NA,NA,PARTICIPANT,NA,NA,NA,NA,0,NA,NA,NA,NA,NA,NA,NA,NA,2024-05-23_07h11.14.842,NA,NA,NA,664eddfc9267fd9dd8cc5699,6,TRUE,100
ýýýMacIntel,NA,NA,NA,NA,NA,NA,NA,NA,beliefs_scatterplots_pretest,NA,2024-05-23_07h11.18.386,34.144999999999996,NA,NA,NA,NA,NA,NA,NA,NA,111.11111111111111,001,NA,beliefs_scatterplots_pretest,664ed6ba62fd8adeb1015beb,NA,NA,NA,NA,2024.1.1,NA,NA,NA,NA,NA,NA,NA,NA,NA,NA,NA,NA,NA,NA,NA,34.144,NA,NA,PARTICIPANT,NA,NA,NA,NA,NA,32.92,NA,NA,NA,NA,NA,NA,NA,2024-05-23_07h11.14.842,39.001999999999995,NA,NA,664eddfc9267fd9dd8cc5699,6,TRUE,100
ýýýMacIntel,NA,NA,NA,NA,NA,NA,NA,NA,beliefs_scatterplots_pretest,NA,2024-05-23_07h11.18.386,NA,NA,NA,39.001999999999995,NA,NA,NA,NA,NA,111.11111111111111,001,NA,beliefs_scatterplots_pretest,664ed6ba62fd8adeb1015beb,NA,NA,NA,NA,2024.1.1,44,NA,NA,NA,NA,Male,NA,NA,NA,NA,NA,NA,44.894,NA,NA,NA,NA,NA,PARTICIPANT,NA,NA,NA,NA,NA,NA,NA,NA,NA,NA,NA,NA,NA,2024-05-23_07h11.14.842,NA,NA,NA,664eddfc9267fd9dd8cc5699,6,TRUE,100
ýýýMacIntel,NA,NA,77.568,NA,NA,84.202,NA,NA,beliefs_scatterplots_pretest,NA,2024-05-23_07h11.18.386,NA,NA,NA,NA,NA,NA,NA,77.569,NA,111.11111111111111,001,NA,beliefs_scatterplots_pretest,664ed6ba62fd8adeb1015beb,NA,NA,NA,NA,2024.1.1,NA,NA,NA,NA,NA,NA,NA,NA,NA,NA,NA,NA,NA,NA,NA,NA,NA,NA,PARTICIPANT,NA,NA,NA,NA,NA,NA,NA,74.736,NA,NA,NA,NA,NA,2024-05-23_07h11.14.842,NA,NA,NA,664eddfc9267fd9dd8cc5699,6,TRUE,100
ýýýMacIntel,NA,NA,NA,NA,NA,NA,NA,NA,beliefs_scatterplots_pretest,NA,2024-05-23_07h11.18.386,NA,NA,NA,NA,NA,NA,NA,NA,NA,111.11111111111111,001,NA,beliefs_scatterplots_pretest,664ed6ba62fd8adeb1015beb,NA,NA,NA,NA,2024.1.1,NA,NA,NA,NA,NA,NA,6.445999999999998,NA,NA,NA,NA,NA,NA,NA,NA,NA,NA,NA,PARTICIPANT,94.385,NA,NA,NA,NA,NA,3.715999999999994,NA,NA,NA,space,84.214,NA,2024-05-23_07h11.14.842,NA,4,NA,664eddfc9267fd9dd8cc5699,6,TRUE,100
ýýýMacIntel,NA,NA,NA,NA,NA,NA,NA,NA,beliefs_scatterplots_pretest,NA,2024-05-23_07h11.18.386,NA,NA,NA,NA,NA,94.397,NA,NA,NA,111.11111111111111,001,NA,beliefs_scatterplots_pretest,664ed6ba62fd8adeb1015beb,NA,NA,NA,NA,2024.1.1,NA,NA,NA,NA,NA,NA,NA,NA,NA,NA,101.504,NA,NA,NA,NA,NA,NA,NA,PARTICIPANT,NA,NA,NA,NA,NA,NA,NA,NA,NA,NA,NA,NA,NA,2024-05-23_07h11.14.842,NA,NA,NA,664eddfc9267fd9dd8cc5699,6,TRUE,100
ýýýMacIntel,NA,4,NA,NA,NA,NA,NA,NA,beliefs_scatterplots_pretest,NA,2024-05-23_07h11.18.386,NA,NA,NA,NA,NA,NA,NA,NA,NA,111.11111111111111,001,NA,beliefs_scatterplots_pretest,664ed6ba62fd8adeb1015beb,101.505,space,4.9269999999999925,0.7039999999999935,2024.1.1,NA,NA,NA,NA,NA,NA,NA,NA,NA,NA,NA,NA,NA,NA,NA,NA,NA,NA,PARTICIPANT,NA,NA,NA,NA,NA,NA,NA,NA,NA,NA,NA,NA,107.151,2024-05-23_07h11.14.842,NA,NA,NA,664eddfc9267fd9dd8cc5699,6,TRUE,100
ýýýMacIntel,NA,NA,NA,NA,NA,NA,NA,NA,beliefs_scatterplots_pretest,NA,2024-05-23_07h11.18.386,NA,NA,NA,NA,NA,NA,NA,NA,NA,111.11111111111111,001,NA,beliefs_scatterplots_pretest,664ed6ba62fd8adeb1015beb,NA,NA,NA,NA,2024.1.1,NA,NA,NA,NA,NA,NA,NA,NA,NA,NA,NA,NA,NA,NA,NA,NA,113.568,107.151,PARTICIPANT,NA,NA,NA,NA,NA,NA,NA,NA,NA,NA,NA,NA,NA,2024-05-23_07h11.14.842,NA,NA,NA,664eddfc9267fd9dd8cc5699,6,TRUE,100
ýýýMacIntel,6.5,NA,NA,113.582,NA,NA,4.5,Increased use of energy-efficient appliances is associated with lower electricity bills.,beliefs_scatterplots_pretest,NA,2024-05-23_07h11.18.386,NA,12.42000000000003,1.5250000000000057,NA,12,NA,11,NA,black,111.11111111111111,001,1,beliefs_scatterplots_pretest,664ed6ba62fd8adeb1015beb,NA,NA,NA,NA,2024.1.1,NA,NA,0,0,NA,NA,NA,NA,space,127.53600000000002,NA,10.41000000000001,NA,NA,1,NA,NA,NA,PARTICIPANT,NA,1,0,high_corr,NA,NA,NA,NA,NA,6,NA,NA,NA,2024-05-23_07h11.14.842,NA,NA,4,664eddfc9267fd9dd8cc5699,6,TRUE,100
ýýýMacIntel,3,NA,NA,127.53700000000002,NA,NA,4.5,"As participation in community arts programs increases, local cultural engagement tends to rise.",beliefs_scatterplots_pretest,NA,2024-05-23_07h11.18.386,NA,9.378000000000014,0.6599999999999966,NA,21,NA,20,NA,black,111.11111111111111,001,1,beliefs_scatterplots_pretest,664ed6ba62fd8adeb1015beb,NA,NA,NA,NA,2024.1.1,NA,NA,1,0,NA,NA,NA,NA,space,137.58400000000003,NA,8.149000000000001,NA,NA,2,NA,NA,NA,PARTICIPANT,NA,1,1,low_corr,NA,NA,NA,NA,NA,4,NA,NA,NA,2024-05-23_07h11.14.842,NA,NA,5,664eddfc9267fd9dd8cc5699,6,TRUE,100
ýýýMacIntel,3.5,NA,NA,137.58400000000003,NA,NA,5,Higher frequency of family meals is linked to better eating habits in children.,beliefs_scatterplots_pretest,NA,2024-05-23_07h11.18.386,NA,6.522,1.282999999999987,NA,20,NA,19,NA,black,111.11111111111111,001,2,beliefs_scatterplots_pretest,664ed6ba62fd8adeb1015beb,NA,NA,NA,NA,2024.1.1,NA,NA,2,0,NA,NA,NA,NA,space,145.40100000000004,NA,4.980000000000018,NA,NA,1,NA,NA,NA,PARTICIPANT,NA,1,2,low_corr,NA,NA,NA,NA,NA,6,NA,NA,NA,2024-05-23_07h11.14.842,NA,NA,6,664eddfc9267fd9dd8cc5699,6,TRUE,100
ýýýMacIntel,5.5,NA,NA,145.40200000000002,NA,NA,4,Higher levels of civic engagement are linked to a stronger sense of community.,beliefs_scatterplots_pretest,NA,2024-05-23_07h11.18.386,NA,6.581999999999994,0.5769999999999982,NA,9,NA,8,NA,black,111.11111111111111,001,0,beliefs_scatterplots_pretest,664ed6ba62fd8adeb1015beb,NA,NA,NA,NA,2024.1.1,NA,NA,3,0,NA,NA,NA,NA,space,152.56900000000002,NA,5.1340000000000146,NA,NA,1,NA,NA,NA,PARTICIPANT,NA,1,3,high_corr,NA,NA,NA,NA,NA,4,NA,NA,NA,2024-05-23_07h11.14.842,NA,NA,5,664eddfc9267fd9dd8cc5699,6,TRUE,100
ýýýMacIntel,2.5,NA,NA,152.57100000000003,NA,NA,4.5,Higher consumption of spicy foods is associated with a lower risk of certain types of cancer.,beliefs_scatterplots_pretest,NA,2024-05-23_07h11.18.386,NA,8.492999999999995,0.4300000000000068,NA,22,NA,21,NA,black,111.11111111111111,001,1,beliefs_scatterplots_pretest,664ed6ba62fd8adeb1015beb,NA,NA,NA,NA,2024.1.1,NA,NA,4,0,NA,NA,NA,NA,space,161.50100000000003,NA,7.078000000000003,NA,NA,1,NA,NA,NA,PARTICIPANT,NA,1,4,low_corr,NA,NA,NA,NA,NA,3,NA,NA,NA,2024-05-23_07h11.14.842,NA,NA,3,664eddfc9267fd9dd8cc5699,6,TRUE,100
ýýýMacIntel,6.5,NA,NA,161.50100000000003,NA,NA,5,"As pedestrian-friendly infrastructure improves, urban walkability tends to increase.",beliefs_scatterplots_pretest,NA,2024-05-23_07h11.18.386,NA,9.407,0.6159999999999854,NA,13,NA,12,NA,black,111.11111111111111,001,2,beliefs_scatterplots_pretest,664ed6ba62fd8adeb1015beb,NA,NA,NA,NA,2024.1.1,NA,NA,5,0,NA,NA,NA,NA,space,171.53500000000005,NA,7.838000000000022,NA,NA,1,NA,NA,NA,PARTICIPANT,NA,1,5,high_corr,NA,NA,NA,NA,NA,5,NA,NA,NA,2024-05-23_07h11.14.842,NA,NA,5,664eddfc9267fd9dd8cc5699,6,TRUE,100
ýýýMacIntel,NA,NA,NA,171.53500000000005,NA,NA,NA,Please set both sliders to 1.,beliefs_scatterplots_pretest,NA,2024-05-23_07h11.18.386,NA,6.325999999999993,0.9350000000000024,NA,29,NA,28,NA,red,111.11111111111111,001,NA,beliefs_scatterplots_pretest,664ed6ba62fd8adeb1015beb,NA,NA,NA,NA,2024.1.1,NA,NA,6,0,NA,NA,NA,NA,space,178.81000000000003,NA,3.8789999999999902,NA,NA,NA,NA,NA,NA,PARTICIPANT,NA,1,6,AC,NA,NA,NA,NA,NA,1,NA,NA,NA,2024-05-23_07h11.14.842,NA,NA,1,664eddfc9267fd9dd8cc5699,6,TRUE,100
ýýýMacIntel,6,NA,NA,178.81100000000004,NA,NA,3,Higher attendance at preventive health screenings is linked to earlier detection of diseases.,beliefs_scatterplots_pretest,NA,2024-05-23_07h11.18.386,NA,9.446999999999974,2.551000000000016,NA,11,NA,10,NA,black,111.11111111111111,001,2,beliefs_scatterplots_pretest,664ed6ba62fd8adeb1015beb,NA,NA,NA,NA,2024.1.1,NA,NA,7,0,NA,NA,NA,NA,space,189.29400000000004,NA,6.522999999999996,NA,NA,0,NA,NA,NA,PARTICIPANT,NA,1,7,high_corr,NA,NA,NA,NA,NA,7,NA,NA,NA,2024-05-23_07h11.14.842,NA,NA,6,664eddfc9267fd9dd8cc5699,6,TRUE,100
ýýýMacIntel,7,NA,NA,189.295,NA,NA,4,"As the quality of healthcare improves, life expectancy tends to increase.",beliefs_scatterplots_pretest,NA,2024-05-23_07h11.18.386,NA,5.330999999999989,0.646,NA,5,NA,4,NA,black,111.11111111111111,001,2,beliefs_scatterplots_pretest,664ed6ba62fd8adeb1015beb,NA,NA,NA,NA,2024.1.1,NA,NA,8,0,NA,NA,NA,NA,space,195.284,NA,4.3799999999999955,NA,NA,0,NA,NA,NA,PARTICIPANT,NA,1,8,high_corr,NA,NA,NA,NA,NA,7,NA,NA,NA,2024-05-23_07h11.14.842,NA,NA,6,664eddfc9267fd9dd8cc5699,6,TRUE,100
ýýýMacIntel,3,NA,NA,195.28500000000005,NA,NA,4,Greater adherence to a Mediterranean diet is linked to a lower risk of neurodegenerative diseases.,beliefs_scatterplots_pretest,NA,2024-05-23_07h11.18.386,NA,7.180999999999983,1.7910000000000252,NA,23,NA,22,NA,black,111.11111111111111,001,0,beliefs_scatterplots_pretest,664ed6ba62fd8adeb1015beb,NA,NA,NA,NA,2024.1.1,NA,NA,9,0,NA,NA,NA,NA,space,204.26800000000003,NA,5.450999999999993,NA,NA,2,NA,NA,NA,PARTICIPANT,NA,1,9,low_corr,NA,NA,NA,NA,NA,3,NA,NA,NA,2024-05-23_07h11.14.842,NA,NA,4,664eddfc9267fd9dd8cc5699,6,TRUE,100
ýýýMacIntel,5.5,NA,NA,204.26900000000003,NA,NA,3,"As soil quality degrades, agricultural productivity tends to decrease.",beliefs_scatterplots_pretest,NA,2024-05-23_07h11.18.386,NA,6.099000000000018,0.5490000000000066,NA,8,NA,7,NA,black,111.11111111111111,001,2,beliefs_scatterplots_pretest,664ed6ba62fd8adeb1015beb,NA,NA,NA,NA,2024.1.1,NA,NA,10,0,NA,NA,NA,NA,space,210.926,NA,4.598000000000013,NA,NA,1,NA,NA,NA,PARTICIPANT,NA,1,10,high_corr,NA,NA,NA,NA,NA,6,NA,NA,NA,2024-05-23_07h11.14.842,NA,NA,3,664eddfc9267fd9dd8cc5699,6,TRUE,100
ýýýMacIntel,3,NA,NA,210.927,NA,NA,5,Greater exposure to music education is linked to enhanced cognitive development in children.,beliefs_scatterplots_pretest,NA,2024-05-23_07h11.18.386,NA,5.412000000000006,0.6009999999999991,NA,18,NA,17,NA,black,111.11111111111111,001,2,beliefs_scatterplots_pretest,664ed6ba62fd8adeb1015beb,NA,NA,NA,NA,2024.1.1,NA,NA,11,0,NA,NA,NA,NA,space,216.95200000000003,NA,4.455999999999989,NA,NA,0,NA,NA,NA,PARTICIPANT,NA,1,11,low_corr,NA,NA,NA,NA,NA,6,NA,NA,NA,2024-05-23_07h11.14.842,NA,NA,6,664eddfc9267fd9dd8cc5699,6,TRUE,100
ýýýMacIntel,3,NA,NA,216.95200000000003,NA,NA,4.5,"As cultural preservation efforts increase, community identity and cohesion tend to strengthen.",beliefs_scatterplots_pretest,NA,2024-05-23_07h11.18.386,NA,7.1910000000000025,0.5889999999999986,NA,25,NA,24,NA,black,111.11111111111111,001,1,beliefs_scatterplots_pretest,664ed6ba62fd8adeb1015beb,NA,NA,NA,NA,2024.1.1,NA,NA,12,0,NA,NA,NA,NA,space,224.743,NA,6.311999999999983,NA,NA,0,NA,NA,NA,PARTICIPANT,NA,1,12,low_corr,NA,NA,NA,NA,NA,5,NA,NA,NA,2024-05-23_07h11.14.842,NA,NA,5,664eddfc9267fd9dd8cc5699,6,TRUE,100
ýýýMacIntel,6,NA,NA,224.74400000000003,NA,NA,4.5,Greater regularity in sleep patterns is associated with improved mental health.,beliefs_scatterplots_pretest,NA,2024-05-23_07h11.18.386,NA,7.196000000000026,0.604,NA,14,NA,13,NA,black,111.11111111111111,001,1,beliefs_scatterplots_pretest,664ed6ba62fd8adeb1015beb,NA,NA,NA,NA,2024.1.1,NA,NA,13,0,NA,NA,NA,NA,space,232.551,NA,4.451000000000022,NA,NA,2,NA,NA,NA,PARTICIPANT,NA,1,13,high_corr,NA,NA,NA,NA,NA,7,NA,NA,NA,2024-05-23_07h11.14.842,NA,NA,6,664eddfc9267fd9dd8cc5699,6,TRUE,100
ýýýMacIntel,NA,NA,NA,232.552,NA,NA,NA,Please set both sliders to 7.,beliefs_scatterplots_pretest,NA,2024-05-23_07h11.18.386,NA,5.594999999999999,0.45300000000000296,NA,26,NA,25,NA,red,111.11111111111111,001,NA,beliefs_scatterplots_pretest,664ed6ba62fd8adeb1015beb,NA,NA,NA,NA,2024.1.1,NA,NA,14,0,NA,NA,NA,NA,space,238.61,NA,4.653999999999996,NA,NA,NA,NA,NA,NA,PARTICIPANT,NA,1,14,AC,NA,NA,NA,NA,NA,7,NA,NA,NA,2024-05-23_07h11.14.842,NA,NA,7,664eddfc9267fd9dd8cc5699,6,TRUE,100
ýýýMacIntel,1,NA,NA,238.61,NA,NA,3,Higher exposure to air conditioning is associated with increased respiratory issues.,beliefs_scatterplots_pretest,NA,2024-05-23_07h11.18.386,NA,4.945999999999998,1.700000000000017,NA,19,NA,18,NA,black,111.11111111111111,001,2,beliefs_scatterplots_pretest,664ed6ba62fd8adeb1015beb,NA,NA,NA,NA,2024.1.1,NA,NA,15,0,NA,NA,NA,NA,space,245.26800000000003,NA,3.926999999999993,NA,NA,0,NA,NA,NA,PARTICIPANT,NA,1,15,low_corr,NA,NA,NA,NA,NA,2,NA,NA,NA,2024-05-23_07h11.14.842,NA,NA,3,664eddfc9267fd9dd8cc5699,6,TRUE,100
ýýýMacIntel,3.5,NA,NA,245.26900000000003,NA,NA,4.5,Greater intake of omega-3 fatty acids is associated with lower inflammation levels.,beliefs_scatterplots_pretest,NA,2024-05-23_07h11.18.386,NA,5.640999999999991,0.7019999999999982,NA,17,NA,16,NA,black,111.11111111111111,001,1,beliefs_scatterplots_pretest,664ed6ba62fd8adeb1015beb,NA,NA,NA,NA,2024.1.1,NA,NA,16,0,NA,NA,NA,NA,space,251.61900000000003,NA,4.536000000000001,NA,NA,1,NA,NA,NA,PARTICIPANT,NA,1,16,low_corr,NA,NA,NA,NA,NA,6,NA,NA,NA,2024-05-23_07h11.14.842,NA,NA,5,664eddfc9267fd9dd8cc5699,6,TRUE,100
ýýýMacIntel,6.5,NA,NA,251.61900000000003,NA,NA,3,Greater use of helmets is associated with a lower incidence of head injuries in cyclists.,beliefs_scatterplots_pretest,NA,2024-05-23_07h11.18.386,NA,5.259999999999991,0.6800000000000068,NA,4,NA,3,NA,black,111.11111111111111,001,2,beliefs_scatterplots_pretest,664ed6ba62fd8adeb1015beb,NA,NA,NA,NA,2024.1.1,NA,NA,17,0,NA,NA,NA,NA,space,257.56800000000004,NA,4.312000000000012,NA,NA,1,NA,NA,NA,PARTICIPANT,NA,1,17,high_corr,NA,NA,NA,NA,NA,7,NA,NA,NA,2024-05-23_07h11.14.842,NA,NA,6,664eddfc9267fd9dd8cc5699,6,TRUE,100
ýýýMacIntel,3.5,NA,NA,257.56800000000004,NA,NA,3,"As the amount of sleep decreases, the risk of obesity increases.",beliefs_scatterplots_pretest,NA,2024-05-23_07h11.18.386,NA,5.847999999999956,0.4429999999999836,NA,16,NA,15,NA,black,111.11111111111111,001,0,beliefs_scatterplots_pretest,664ed6ba62fd8adeb1015beb,NA,NA,NA,NA,2024.1.1,NA,NA,18,0,NA,NA,NA,NA,space,263.86800000000005,NA,4.839999999999975,NA,NA,1,NA,NA,NA,PARTICIPANT,NA,1,18,low_corr,NA,NA,NA,NA,NA,2,NA,NA,NA,2024-05-23_07h11.14.842,NA,NA,3,664eddfc9267fd9dd8cc5699,6,TRUE,100
ýýýMacIntel,NA,NA,NA,263.86800000000005,NA,NA,NA,Please set both sliders to 7.,beliefs_scatterplots_pretest,NA,2024-05-23_07h11.18.386,NA,3.7180000000000177,0.46299999999996544,NA,28,NA,27,NA,red,111.11111111111111,001,NA,beliefs_scatterplots_pretest,664ed6ba62fd8adeb1015beb,NA,NA,NA,NA,2024.1.1,NA,NA,19,0,NA,NA,NA,NA,space,268.059,NA,2.733000000000004,NA,NA,NA,NA,NA,NA,PARTICIPANT,NA,1,19,AC,NA,NA,NA,NA,NA,7,NA,NA,NA,2024-05-23_07h11.14.842,NA,NA,7,664eddfc9267fd9dd8cc5699,6,TRUE,100
ýýýMacIntel,2.5,NA,NA,268.06,NA,NA,4,Higher consumption of nuts and seeds is associated with reduced risk of cardiovascular diseases.,beliefs_scatterplots_pretest,NA,2024-05-23_07h11.18.386,NA,5.100000000000023,0.6150000000000091,NA,24,NA,23,NA,black,111.11111111111111,001,2,beliefs_scatterplots_pretest,664ed6ba62fd8adeb1015beb,NA,NA,NA,NA,2024.1.1,NA,NA,20,0,NA,NA,NA,NA,space,273.77700000000004,NA,4.257000000000005,NA,NA,1,NA,NA,NA,PARTICIPANT,NA,1,20,low_corr,NA,NA,NA,NA,NA,6,NA,NA,NA,2024-05-23_07h11.14.842,NA,NA,6,664eddfc9267fd9dd8cc5699,6,TRUE,100
ýýýMacIntel,NA,NA,NA,273.77700000000004,NA,NA,NA,Please set both sliders to 1.,beliefs_scatterplots_pretest,NA,2024-05-23_07h11.18.386,NA,3.446999999999946,0.39699999999999136,NA,31,NA,30,NA,red,111.11111111111111,001,NA,beliefs_scatterplots_pretest,664ed6ba62fd8adeb1015beb,NA,NA,NA,NA,2024.1.1,NA,NA,21,0,NA,NA,NA,NA,space,277.62800000000004,NA,1.9699999999999704,NA,NA,NA,NA,NA,NA,PARTICIPANT,NA,1,21,AC,NA,NA,NA,NA,NA,1,NA,NA,NA,2024-05-23_07h11.14.842,NA,NA,1,664eddfc9267fd9dd8cc5699,6,TRUE,100
ýýýMacIntel,3.5,NA,NA,277.629,NA,NA,4,Greater water consumption is linked to improved kidney function.,beliefs_scatterplots_pretest,NA,2024-05-23_07h11.18.386,NA,5.4769999999999754,0.5890000000000555,NA,15,NA,14,NA,black,111.11111111111111,001,0,beliefs_scatterplots_pretest,664ed6ba62fd8adeb1015beb,NA,NA,NA,NA,2024.1.1,NA,NA,22,0,NA,NA,NA,NA,space,283.70200000000006,NA,4.019999999999982,NA,NA,1,NA,NA,NA,PARTICIPANT,NA,1,22,low_corr,NA,NA,NA,NA,NA,7,NA,NA,NA,2024-05-23_07h11.14.842,NA,NA,6,664eddfc9267fd9dd8cc5699,6,TRUE,100
ýýýMacIntel,NA,NA,NA,283.70200000000006,NA,NA,NA,Please set both sliders to 7.,beliefs_scatterplots_pretest,NA,2024-05-23_07h11.18.386,NA,2.7450000000000045,0.764,NA,27,NA,26,NA,red,111.11111111111111,001,NA,beliefs_scatterplots_pretest,664ed6ba62fd8adeb1015beb,NA,NA,NA,NA,2024.1.1,NA,NA,23,0,NA,NA,NA,NA,space,288.269,NA,3.798000000000002,NA,NA,NA,NA,NA,NA,PARTICIPANT,NA,1,23,AC,NA,NA,NA,NA,NA,7,NA,NA,NA,2024-05-23_07h11.14.842,NA,NA,7,664eddfc9267fd9dd8cc5699,6,TRUE,100
ýýýMacIntel,6.5,NA,NA,288.269,NA,NA,4.5,"As access to clean water improves, the incidence of waterborne diseases decreases.",beliefs_scatterplots_pretest,NA,2024-05-23_07h11.18.386,NA,7.761000000000024,0.5260000000000105,NA,6,NA,5,NA,black,111.11111111111111,001,1,beliefs_scatterplots_pretest,664ed6ba62fd8adeb1015beb,NA,NA,NA,NA,2024.1.1,NA,NA,24,0,NA,NA,NA,NA,space,296.56800000000004,NA,6.088999999999999,NA,NA,1,NA,NA,NA,PARTICIPANT,NA,1,24,high_corr,NA,NA,NA,NA,NA,7,NA,NA,NA,2024-05-23_07h11.14.842,NA,NA,6,664eddfc9267fd9dd8cc5699,6,TRUE,100
ýýýMacIntel,6.5,NA,NA,296.569,NA,NA,4,"As caffeine consumption increases, so does the average heart rate.",beliefs_scatterplots_pretest,NA,2024-05-23_07h11.18.386,NA,6.084000000000003,0.6820000000000164,NA,2,NA,1,NA,black,111.11111111111111,001,0,beliefs_scatterplots_pretest,664ed6ba62fd8adeb1015beb,NA,NA,NA,NA,2024.1.1,NA,NA,25,0,NA,NA,NA,NA,space,303.34400000000005,NA,4.6200000000000045,NA,NA,1,NA,NA,NA,PARTICIPANT,NA,1,25,high_corr,NA,NA,NA,NA,NA,6,NA,NA,NA,2024-05-23_07h11.14.842,NA,NA,5,664eddfc9267fd9dd8cc5699,6,TRUE,100
ýýýMacIntel,5.5,NA,NA,303.34400000000005,NA,NA,4,Greater frequency of exercise is linked to a lower risk of depression.,beliefs_scatterplots_pretest,NA,2024-05-23_07h11.18.386,NA,5.087000000000046,0.5649999999999977,NA,3,NA,2,NA,black,111.11111111111111,001,2,beliefs_scatterplots_pretest,664ed6ba62fd8adeb1015beb,NA,NA,NA,NA,2024.1.1,NA,NA,26,0,NA,NA,NA,NA,space,309.004,NA,4.067000000000007,NA,NA,1,NA,NA,NA,PARTICIPANT,NA,1,26,high_corr,NA,NA,NA,NA,NA,7,NA,NA,NA,2024-05-23_07h11.14.842,NA,NA,7,664eddfc9267fd9dd8cc5699,6,TRUE,100
ýýýMacIntel,NA,NA,NA,309.00500000000005,NA,NA,NA,Please set both sliders to 1.,beliefs_scatterplots_pretest,NA,2024-05-23_07h11.18.386,NA,3.009999999999991,0.6020000000000323,NA,30,NA,29,NA,red,111.11111111111111,001,NA,beliefs_scatterplots_pretest,664ed6ba62fd8adeb1015beb,NA,NA,NA,NA,2024.1.1,NA,NA,27,0,NA,NA,NA,NA,space,312.627,NA,1.5219999999999914,NA,NA,NA,NA,NA,NA,PARTICIPANT,NA,1,27,AC,NA,NA,NA,NA,NA,1,NA,NA,NA,2024-05-23_07h11.14.842,NA,NA,1,664eddfc9267fd9dd8cc5699,6,TRUE,100
ýýýMacIntel,5.5,NA,NA,312.62800000000004,NA,NA,5,Higher levels of empathy are linked to stronger interpersonal relationships.,beliefs_scatterplots_pretest,NA,2024-05-23_07h11.18.386,NA,5.856999999999971,0.4619999999999891,NA,7,NA,6,NA,black,111.11111111111111,001,2,beliefs_scatterplots_pretest,664ed6ba62fd8adeb1015beb,NA,NA,NA,NA,2024.1.1,NA,NA,28,0,NA,NA,NA,NA,space,318.959,NA,4.998999999999967,NA,NA,1,NA,NA,NA,PARTICIPANT,NA,1,28,high_corr,NA,NA,NA,NA,NA,6,NA,NA,NA,2024-05-23_07h11.14.842,NA,NA,6,664eddfc9267fd9dd8cc5699,6,TRUE,100
ýýýMacIntel,6,NA,NA,318.96000000000004,NA,NA,3,Higher sugar consumption is associated with an increased risk of dental cavities.,beliefs_scatterplots_pretest,NA,2024-05-23_07h11.18.386,NA,6.607000000000028,0.7690000000000055,NA,10,NA,9,NA,black,111.11111111111111,001,0,beliefs_scatterplots_pretest,664ed6ba62fd8adeb1015beb,NA,NA,NA,NA,2024.1.1,NA,NA,29,0,NA,NA,NA,NA,space,326.343,NA,4.910000000000025,NA,NA,2,NA,NA,NA,PARTICIPANT,NA,1,29,high_corr,NA,NA,NA,NA,NA,6,NA,NA,NA,2024-05-23_07h11.14.842,NA,NA,4,664eddfc9267fd9dd8cc5699,6,TRUE,100
ýýýMacIntel,6.5,NA,NA,326.343,NA,NA,4.5,Increased exposure to sunlight is correlated with higher vitamin D levels.,beliefs_scatterplots_pretest,NA,2024-05-23_07h11.18.386,NA,6.975000000000023,0.5440000000000396,NA,1,NA,0,NA,black,111.11111111111111,001,1,beliefs_scatterplots_pretest,664ed6ba62fd8adeb1015beb,NA,NA,NA,NA,2024.1.1,NA,NA,30,0,NA,NA,NA,NA,space,333.869,NA,5.3559999999999945,NA,NA,1,NA,NA,NA,PARTICIPANT,NA,1,30,high_corr,NA,NA,NA,NA,NA,7,NA,NA,NA,2024-05-23_07h11.14.842,NA,NA,4,664eddfc9267fd9dd8cc5699,6,TRUE,100
ýýýMacIntel,NA,NA,NA,NA,NA,NA,NA,NA,beliefs_scatterplots_pretest,NA,2024-05-23_07h11.18.386,NA,NA,NA,NA,NA,NA,NA,NA,NA,111.11111111111111,001,NA,beliefs_scatterplots_pretest,664ed6ba62fd8adeb1015beb,NA,NA,NA,NA,2024.1.1,NA,NA,NA,NA,NA,NA,NA,341.98400000000004,NA,NA,NA,NA,NA,333.869,NA,NA,NA,NA,PARTICIPANT,NA,NA,NA,NA,NA,NA,NA,NA,NA,NA,NA,NA,NA,2024-05-23_07h11.14.842,NA,NA,NA,664eddfc9267fd9dd8cc5699,6,TRUE,100
ýýýMacIntel,NA,NA,NA,NA,NA,NA,NA,NA,beliefs_scatterplots_pretest,345.76000000000005,2024-05-23_07h11.18.386,NA,NA,NA,NA,NA,NA,NA,NA,NA,111.11111111111111,001,NA,beliefs_scatterplots_pretest,664ed6ba62fd8adeb1015beb,NA,NA,NA,NA,2024.1.1,NA,NA,NA,NA,NA,NA,NA,NA,NA,NA,NA,NA,NA,NA,NA,NA,NA,NA,PARTICIPANT,NA,NA,NA,NA,NA,NA,NA,NA,341.98400000000004,NA,NA,NA,NA,2024-05-23_07h11.14.842,NA,NA,NA,664eddfc9267fd9dd8cc5699,6,TRUE,100
ýýýWin32,NA,NA,NA,NA,90.30189999999853,NA,NA,NA,beliefs_scatterplots_pretest,NA,2024-05-23_07h22.57.174,NA,NA,NA,NA,NA,NA,NA,NA,NA,60.24096385542697,001,NA,beliefs_scatterplots_pretest,664ed6ba62fd8adeb1015beb,NA,NA,NA,NA,2024.1.1,NA,NA,NA,NA,NA,NA,NA,NA,NA,NA,NA,NA,NA,NA,NA,NA,NA,NA,PARTICIPANT,NA,NA,NA,NA,6.9999999925585e-4,NA,NA,NA,NA,NA,NA,NA,NA,2024-05-23_07h22.40.627,NA,NA,NA,664ee0ab45326734a5ede843,6,TRUE,74
ýýýWin32,NA,NA,NA,NA,NA,NA,NA,NA,beliefs_scatterplots_pretest,NA,2024-05-23_07h22.57.174,113.03610000000148,NA,NA,NA,NA,NA,NA,NA,NA,60.24096385542697,001,NA,beliefs_scatterplots_pretest,664ed6ba62fd8adeb1015beb,NA,NA,NA,NA,2024.1.1,NA,NA,NA,NA,NA,NA,NA,NA,NA,NA,NA,NA,NA,NA,NA,113.03480000000071,NA,NA,PARTICIPANT,NA,NA,NA,NA,NA,111.46710000000148,NA,NA,NA,NA,NA,NA,NA,2024-05-23_07h22.40.627,122.23469999999924,NA,NA,664ee0ab45326734a5ede843,6,TRUE,74
ýýýWin32,NA,NA,NA,NA,NA,NA,NA,NA,beliefs_scatterplots_pretest,NA,2024-05-23_07h22.57.174,NA,NA,NA,122.23480000000072,NA,NA,NA,NA,NA,60.24096385542697,001,NA,beliefs_scatterplots_pretest,664ed6ba62fd8adeb1015beb,NA,NA,NA,NA,2024.1.1,32,NA,NA,NA,NA,Male,NA,NA,NA,NA,NA,NA,148.235,NA,NA,NA,NA,NA,PARTICIPANT,NA,NA,NA,NA,NA,NA,NA,NA,NA,NA,NA,NA,NA,2024-05-23_07h22.40.627,NA,NA,NA,664ee0ab45326734a5ede843,6,TRUE,74
ýýýWin32,NA,NA,169.83310000000148,NA,NA,175.33330000000072,NA,NA,beliefs_scatterplots_pretest,NA,2024-05-23_07h22.57.174,NA,NA,NA,NA,NA,NA,NA,169.83369999999923,NA,60.24096385542697,001,NA,beliefs_scatterplots_pretest,664ed6ba62fd8adeb1015beb,NA,NA,NA,NA,2024.1.1,NA,NA,NA,NA,NA,NA,NA,NA,NA,NA,NA,NA,NA,NA,NA,NA,NA,NA,PARTICIPANT,NA,NA,NA,NA,NA,NA,NA,167.11669999999924,NA,NA,NA,NA,NA,2024-05-23_07h22.40.627,NA,NA,NA,664ee0ab45326734a5ede843,6,TRUE,74
ýýýWin32,NA,NA,NA,NA,NA,NA,NA,NA,beliefs_scatterplots_pretest,NA,2024-05-23_07h22.57.174,NA,NA,NA,NA,NA,NA,NA,NA,NA,60.24096385542697,001,NA,beliefs_scatterplots_pretest,664ed6ba62fd8adeb1015beb,NA,NA,NA,NA,2024.1.1,NA,NA,NA,NA,NA,NA,0.9334,NA,NA,NA,NA,NA,NA,NA,NA,NA,NA,NA,PARTICIPANT,186.70180000000073,NA,NA,NA,NA,NA,10.892500000000013,NA,NA,NA,space,175.3333999999985,NA,2024-05-23_07h22.40.627,NA,5,NA,664ee0ab45326734a5ede843,6,TRUE,74
ýýýWin32,NA,NA,NA,NA,NA,NA,NA,NA,beliefs_scatterplots_pretest,NA,2024-05-23_07h22.57.174,NA,NA,NA,NA,NA,186.70230000000072,NA,NA,NA,60.24096385542697,001,NA,beliefs_scatterplots_pretest,664ed6ba62fd8adeb1015beb,NA,NA,NA,NA,2024.1.1,NA,NA,NA,NA,NA,NA,NA,NA,NA,NA,193.96819999999923,NA,NA,NA,NA,NA,NA,NA,PARTICIPANT,NA,NA,NA,NA,NA,NA,NA,NA,NA,NA,NA,NA,NA,2024-05-23_07h22.40.627,NA,NA,NA,664ee0ab45326734a5ede843,6,TRUE,74
ýýýWin32,NA,3,NA,NA,NA,NA,NA,NA,beliefs_scatterplots_pretest,NA,2024-05-23_07h22.57.174,NA,NA,NA,NA,NA,NA,NA,NA,NA,60.24096385542697,001,NA,beliefs_scatterplots_pretest,664ed6ba62fd8adeb1015beb,193.9683000000007,space,13.057100000001498,0.2519000000022231,2024.1.1,NA,NA,NA,NA,NA,NA,NA,NA,NA,NA,NA,NA,NA,NA,NA,NA,NA,NA,PARTICIPANT,NA,NA,NA,NA,NA,NA,NA,NA,NA,NA,NA,NA,207.3033999999985,2024-05-23_07h22.40.627,NA,NA,NA,664ee0ab45326734a5ede843,6,TRUE,74
ýýýWin32,NA,NA,NA,NA,NA,NA,NA,NA,beliefs_scatterplots_pretest,NA,2024-05-23_07h22.57.174,NA,NA,NA,NA,NA,NA,NA,NA,NA,60.24096385542697,001,NA,beliefs_scatterplots_pretest,664ed6ba62fd8adeb1015beb,NA,NA,NA,NA,2024.1.1,NA,NA,NA,NA,NA,NA,NA,NA,NA,NA,NA,NA,NA,NA,NA,NA,210.866,207.3033999999985,PARTICIPANT,NA,NA,NA,NA,NA,NA,NA,NA,NA,NA,NA,NA,NA,2024-05-23_07h22.40.627,NA,NA,NA,664ee0ab45326734a5ede843,6,TRUE,74
ýýýWin32,6.5,NA,NA,210.86860000000144,NA,NA,4.5,"As access to clean water improves, the incidence of waterborne diseases decreases.",beliefs_scatterplots_pretest,NA,2024-05-23_07h22.57.174,NA,9.765699999999242,0.40809999999774504,NA,6,NA,5,NA,black,60.24096385542697,001,1,beliefs_scatterplots_pretest,664ed6ba62fd8adeb1015beb,NA,NA,NA,NA,2024.1.1,NA,NA,0,0,NA,NA,NA,NA,space,221.06610000000148,NA,8.772,NA,NA,1,NA,NA,NA,PARTICIPANT,NA,1,0,high_corr,NA,NA,NA,NA,NA,7,NA,NA,NA,2024-05-23_07h22.40.627,NA,NA,7,664ee0ab45326734a5ede843,6,TRUE,74
ýýýWin32,5.5,NA,NA,221.0665,NA,NA,3,"As soil quality degrades, agricultural productivity tends to decrease.",beliefs_scatterplots_pretest,NA,2024-05-23_07h22.57.174,NA,13.15949999999998,1.5468000000007294,NA,8,NA,7,NA,black,60.24096385542697,001,2,beliefs_scatterplots_pretest,664ed6ba62fd8adeb1015beb,NA,NA,NA,NA,2024.1.1,NA,NA,1,0,NA,NA,NA,NA,space,235.78230000000073,NA,11.31649999999999,NA,NA,1,NA,NA,NA,PARTICIPANT,NA,1,1,high_corr,NA,NA,NA,NA,NA,6,NA,NA,NA,2024-05-23_07h22.40.627,NA,NA,2,664ee0ab45326734a5ede843,6,TRUE,74
ýýýWin32,6.5,NA,NA,235.7826999999992,NA,NA,4,"As caffeine consumption increases, so does the average heart rate.",beliefs_scatterplots_pretest,NA,2024-05-23_07h22.57.174,NA,5.1926999999992915,0.16389999999853444,NA,2,NA,1,NA,black,60.24096385542697,001,0,beliefs_scatterplots_pretest,664ed6ba62fd8adeb1015beb,NA,NA,NA,NA,2024.1.1,NA,NA,2,0,NA,NA,NA,NA,space,241.149,NA,3.1301000000014767,NA,NA,1,NA,NA,NA,PARTICIPANT,NA,1,2,high_corr,NA,NA,NA,NA,NA,6,NA,NA,NA,2024-05-23_07h22.40.627,NA,NA,4,664ee0ab45326734a5ede843,6,TRUE,74
ýýýWin32,6.5,NA,NA,241.14939999999856,NA,NA,3,Greater use of helmets is associated with a lower incidence of head injuries in cyclists.,beliefs_scatterplots_pretest,NA,2024-05-23_07h22.57.174,NA,7.416399999998532,11.934400000002256,NA,4,NA,3,NA,black,60.24096385542697,001,2,beliefs_scatterplots_pretest,664ed6ba62fd8adeb1015beb,NA,NA,NA,NA,2024.1.1,NA,NA,3,0,NA,NA,NA,NA,space,260.53169999999926,NA,5.567600000001505,NA,NA,1,NA,NA,NA,PARTICIPANT,NA,1,3,high_corr,NA,NA,NA,NA,NA,5,NA,NA,NA,2024-05-23_07h22.40.627,NA,NA,5,664ee0ab45326734a5ede843,6,TRUE,74
ýýýWin32,3,NA,NA,260.5401999999993,NA,NA,4,Greater adherence to a Mediterranean diet is linked to a lower risk of neurodegenerative diseases.,beliefs_scatterplots_pretest,NA,2024-05-23_07h22.57.174,NA,93.4199,0.4204000000021893,NA,23,NA,22,NA,black,60.24096385542697,001,0,beliefs_scatterplots_pretest,664ed6ba62fd8adeb1015beb,NA,NA,NA,NA,2024.1.1,NA,NA,4,0,NA,NA,NA,NA,space,356.04819999999927,NA,95.06889999999852,NA,NA,2,NA,NA,NA,PARTICIPANT,NA,1,4,low_corr,NA,NA,NA,NA,NA,1,NA,NA,NA,2024-05-23_07h22.40.627,NA,NA,2,664ee0ab45326734a5ede843,6,TRUE,74
ýýýWin32,NA,NA,NA,356.0486000000015,NA,NA,NA,Please set both sliders to 1.,beliefs_scatterplots_pretest,NA,2024-05-23_07h22.57.174,NA,16.103099999997767,18.65119999999922,NA,30,NA,29,NA,red,60.24096385542697,001,NA,beliefs_scatterplots_pretest,664ed6ba62fd8adeb1015beb,NA,NA,NA,NA,2024.1.1,NA,NA,5,0,NA,NA,NA,NA,space,378.6796999999993,NA,14.690500000000045,NA,NA,NA,NA,NA,NA,PARTICIPANT,NA,1,5,AC,NA,NA,NA,NA,NA,1,NA,NA,NA,2024-05-23_07h22.40.627,NA,NA,1,664ee0ab45326734a5ede843,6,TRUE,74
ýýýWin32,3,NA,NA,378.6905,NA,NA,5,Greater exposure to music education is linked to enhanced cognitive development in children.,beliefs_scatterplots_pretest,NA,2024-05-23_07h22.57.174,NA,8.043599999997753,0.2629999999999768,NA,18,NA,17,NA,black,60.24096385542697,001,2,beliefs_scatterplots_pretest,664ed6ba62fd8adeb1015beb,NA,NA,NA,NA,2024.1.1,NA,NA,6,0,NA,NA,NA,NA,space,387.0141000000015,NA,6.011899999998548,NA,NA,0,NA,NA,NA,PARTICIPANT,NA,1,6,low_corr,NA,NA,NA,NA,NA,7,NA,NA,NA,2024-05-23_07h22.40.627,NA,NA,7,664ee0ab45326734a5ede843,6,TRUE,74
ýýýWin32,3.5,NA,NA,387.01439999999855,NA,NA,5,Higher frequency of family meals is linked to better eating habits in children.,beliefs_scatterplots_pretest,NA,2024-05-23_07h22.57.174,NA,5.789399999998523,0.2046999999992636,NA,20,NA,19,NA,black,60.24096385542697,001,2,beliefs_scatterplots_pretest,664ed6ba62fd8adeb1015beb,NA,NA,NA,NA,2024.1.1,NA,NA,7,0,NA,NA,NA,NA,space,393.0306999999993,NA,4.795500000000004,NA,NA,1,NA,NA,NA,PARTICIPANT,NA,1,7,low_corr,NA,NA,NA,NA,NA,7,NA,NA,NA,2024-05-23_07h22.40.627,NA,NA,7,664ee0ab45326734a5ede843,6,TRUE,74
ýýýWin32,NA,NA,NA,393.031,NA,NA,NA,Please set both sliders to 1.,beliefs_scatterplots_pretest,NA,2024-05-23_07h22.57.174,NA,4.6924999999999955,0.4832000000029666,NA,31,NA,30,NA,red,60.24096385542697,001,NA,beliefs_scatterplots_pretest,664ed6ba62fd8adeb1015beb,NA,NA,NA,NA,2024.1.1,NA,NA,8,0,NA,NA,NA,NA,space,398.215,NA,3.120999999999981,NA,NA,NA,NA,NA,NA,PARTICIPANT,NA,1,8,AC,NA,NA,NA,NA,NA,1,NA,NA,NA,2024-05-23_07h22.40.627,NA,NA,1,664ee0ab45326734a5ede843,6,TRUE,74
ýýýWin32,6.5,NA,NA,398.2153000000007,NA,NA,4.5,Increased exposure to sunlight is correlated with higher vitamin D levels.,beliefs_scatterplots_pretest,NA,2024-05-23_07h22.57.174,NA,9.4072,0.22789999999849897,NA,1,NA,0,NA,black,60.24096385542697,001,1,beliefs_scatterplots_pretest,664ed6ba62fd8adeb1015beb,NA,NA,NA,NA,2024.1.1,NA,NA,9,0,NA,NA,NA,NA,space,407.8665,NA,7.9655,NA,NA,1,NA,NA,NA,PARTICIPANT,NA,1,9,high_corr,NA,NA,NA,NA,NA,5,NA,NA,NA,2024-05-23_07h22.40.627,NA,NA,4,664ee0ab45326734a5ede843,6,TRUE,74
ýýýWin32,1,NA,NA,407.8675,NA,NA,3,Higher exposure to air conditioning is associated with increased respiratory issues.,beliefs_scatterplots_pretest,NA,2024-05-23_07h22.57.174,NA,6.949399999998548,0.24419999999923905,NA,19,NA,18,NA,black,60.24096385542697,001,2,beliefs_scatterplots_pretest,664ed6ba62fd8adeb1015beb,NA,NA,NA,NA,2024.1.1,NA,NA,10,0,NA,NA,NA,NA,space,415.08019999999925,NA,5.219499999999982,NA,NA,0,NA,NA,NA,PARTICIPANT,NA,1,10,low_corr,NA,NA,NA,NA,NA,5,NA,NA,NA,2024-05-23_07h22.40.627,NA,NA,3,664ee0ab45326734a5ede843,6,TRUE,74
ýýýWin32,2.5,NA,NA,415.0806000000015,NA,NA,4.5,Higher consumption of spicy foods is associated with a lower risk of certain types of cancer.,beliefs_scatterplots_pretest,NA,2024-05-23_07h22.57.174,NA,11.273500000000013,0.2386000000014974,NA,22,NA,21,NA,black,60.24096385542697,001,1,beliefs_scatterplots_pretest,664ed6ba62fd8adeb1015beb,NA,NA,NA,NA,2024.1.1,NA,NA,11,0,NA,NA,NA,NA,space,426.6138000000008,NA,4.822499999999991,NA,NA,1,NA,NA,NA,PARTICIPANT,NA,1,11,low_corr,NA,NA,NA,NA,NA,3,NA,NA,NA,2024-05-23_07h22.40.627,NA,NA,2,664ee0ab45326734a5ede843,6,TRUE,74
ýýýWin32,6,NA,NA,426.6141000000015,NA,NA,4.5,Greater regularity in sleep patterns is associated with improved mental health.,beliefs_scatterplots_pretest,NA,2024-05-23_07h22.57.174,NA,137.91940000000227,2.783999999999992,NA,14,NA,13,NA,black,60.24096385542697,001,1,beliefs_scatterplots_pretest,664ed6ba62fd8adeb1015beb,NA,NA,NA,NA,2024.1.1,NA,NA,12,0,NA,NA,NA,NA,space,565.9613000000007,NA,135.27949999999998,NA,NA,2,NA,NA,NA,PARTICIPANT,NA,1,12,high_corr,NA,NA,NA,NA,NA,6,NA,NA,NA,2024-05-23_07h22.40.627,NA,NA,5,664ee0ab45326734a5ede843,6,TRUE,74
ýýýWin32,5.5,NA,NA,565.9616000000015,NA,NA,5,Higher levels of empathy are linked to stronger interpersonal relationships.,beliefs_scatterplots_pretest,NA,2024-05-23_07h22.57.174,NA,5.461500000000001,0.25080000000082237,NA,7,NA,6,NA,black,60.24096385542697,001,2,beliefs_scatterplots_pretest,664ed6ba62fd8adeb1015beb,NA,NA,NA,NA,2024.1.1,NA,NA,13,0,NA,NA,NA,NA,space,571.6948999999985,NA,4.778700000002914,NA,NA,1,NA,NA,NA,PARTICIPANT,NA,1,13,high_corr,NA,NA,NA,NA,NA,6,NA,NA,NA,2024-05-23_07h22.40.627,NA,NA,6,664ee0ab45326734a5ede843,6,TRUE,74
ýýýWin32,3.5,NA,NA,571.695,NA,NA,4,Greater water consumption is linked to improved kidney function.,beliefs_scatterplots_pretest,NA,2024-05-23_07h22.57.174,NA,4.316600000001472,0.3346999999993159,NA,15,NA,14,NA,black,60.24096385542697,001,0,beliefs_scatterplots_pretest,664ed6ba62fd8adeb1015beb,NA,NA,NA,NA,2024.1.1,NA,NA,14,0,NA,NA,NA,NA,space,576.3781999999993,NA,3.8004999999999423,NA,NA,1,NA,NA,NA,PARTICIPANT,NA,1,14,low_corr,NA,NA,NA,NA,NA,7,NA,NA,NA,2024-05-23_07h22.40.627,NA,NA,7,664ee0ab45326734a5ede843,6,TRUE,74
ýýýWin32,NA,NA,NA,576.3785,NA,NA,NA,Please set both sliders to 7.,beliefs_scatterplots_pretest,NA,2024-05-23_07h22.57.174,NA,5.130699999999251,1.7411000000014385,NA,27,NA,26,NA,red,60.24096385542697,001,NA,beliefs_scatterplots_pretest,664ed6ba62fd8adeb1015beb,NA,NA,NA,NA,2024.1.1,NA,NA,15,0,NA,NA,NA,NA,space,583.2766000000015,NA,3.980599999997821,NA,NA,NA,NA,NA,NA,PARTICIPANT,NA,1,15,AC,NA,NA,NA,NA,NA,7,NA,NA,NA,2024-05-23_07h22.40.627,NA,NA,7,664ee0ab45326734a5ede843,6,TRUE,74
ýýýWin32,3.5,NA,NA,583.2768999999985,NA,NA,3,"As the amount of sleep decreases, the risk of obesity increases.",beliefs_scatterplots_pretest,NA,2024-05-23_07h22.57.174,NA,6.731800000000703,0.2173999999985199,NA,16,NA,15,NA,black,60.24096385542697,001,0,beliefs_scatterplots_pretest,664ed6ba62fd8adeb1015beb,NA,NA,NA,NA,2024.1.1,NA,NA,16,0,NA,NA,NA,NA,space,590.2446999999993,NA,5.740499999999997,NA,NA,1,NA,NA,NA,PARTICIPANT,NA,1,16,low_corr,NA,NA,NA,NA,NA,2,NA,NA,NA,2024-05-23_07h22.40.627,NA,NA,2,664ee0ab45326734a5ede843,6,TRUE,74
ýýýWin32,6.5,NA,NA,590.2448999999986,NA,NA,4.5,Increased use of energy-efficient appliances is associated with lower electricity bills.,beliefs_scatterplots_pretest,NA,2024-05-23_07h22.57.174,NA,8.179600000001528,0.0568,NA,12,NA,11,NA,black,60.24096385542697,001,1,beliefs_scatterplots_pretest,664ed6ba62fd8adeb1015beb,NA,NA,NA,NA,2024.1.1,NA,NA,17,0,NA,NA,NA,NA,space,598.5093000000007,NA,7.180300000000784,NA,NA,1,NA,NA,NA,PARTICIPANT,NA,1,17,high_corr,NA,NA,NA,NA,NA,6,NA,NA,NA,2024-05-23_07h22.40.627,NA,NA,5,664ee0ab45326734a5ede843,6,TRUE,74
ýýýWin32,3.5,NA,NA,598.5096999999993,NA,NA,4.5,Greater intake of omega-3 fatty acids is associated with lower inflammation levels.,beliefs_scatterplots_pretest,NA,2024-05-23_07h22.57.174,NA,5.388499999999908,0.16480000000080963,NA,17,NA,16,NA,black,60.24096385542697,001,1,beliefs_scatterplots_pretest,664ed6ba62fd8adeb1015beb,NA,NA,NA,NA,2024.1.1,NA,NA,18,0,NA,NA,NA,NA,space,604.0765,NA,4.6644999999999754,NA,NA,1,NA,NA,NA,PARTICIPANT,NA,1,18,low_corr,NA,NA,NA,NA,NA,4,NA,NA,NA,2024-05-23_07h22.40.627,NA,NA,4,664ee0ab45326734a5ede843,6,TRUE,74
ýýýWin32,5.5,NA,NA,604.0768999999985,NA,NA,4,Greater frequency of exercise is linked to a lower risk of depression.,beliefs_scatterplots_pretest,NA,2024-05-23_07h22.57.174,NA,8.466700000003016,0.9710999999978184,NA,3,NA,2,NA,black,60.24096385542697,001,2,beliefs_scatterplots_pretest,664ed6ba62fd8adeb1015beb,NA,NA,NA,NA,2024.1.1,NA,NA,19,0,NA,NA,NA,NA,space,613.5423999999986,NA,4.189399999998614,NA,NA,1,NA,NA,NA,PARTICIPANT,NA,1,19,high_corr,NA,NA,NA,NA,NA,6,NA,NA,NA,2024-05-23_07h22.40.627,NA,NA,3,664ee0ab45326734a5ede843,6,TRUE,74
ýýýWin32,6.5,NA,NA,613.5426999999993,NA,NA,5,"As pedestrian-friendly infrastructure improves, urban walkability tends to increase.",beliefs_scatterplots_pretest,NA,2024-05-23_07h22.57.174,NA,7.2693,0.18389999999851625,NA,13,NA,12,NA,black,60.24096385542697,001,2,beliefs_scatterplots_pretest,664ed6ba62fd8adeb1015beb,NA,NA,NA,NA,2024.1.1,NA,NA,20,0,NA,NA,NA,NA,space,621.0255,NA,5.6164000000022725,NA,NA,1,NA,NA,NA,PARTICIPANT,NA,1,20,high_corr,NA,NA,NA,NA,NA,5,NA,NA,NA,2024-05-23_07h22.40.627,NA,NA,5,664ee0ab45326734a5ede843,6,TRUE,74
ýýýWin32,NA,NA,NA,621.026,NA,NA,NA,Please set both sliders to 7.,beliefs_scatterplots_pretest,NA,2024-05-23_07h22.57.174,NA,2.9933000000006587,0.19189999999844076,NA,26,NA,25,NA,red,60.24096385542697,001,NA,beliefs_scatterplots_pretest,664ed6ba62fd8adeb1015beb,NA,NA,NA,NA,2024.1.1,NA,NA,21,0,NA,NA,NA,NA,space,624.2258000000007,NA,1.8123999999985472,NA,NA,NA,NA,NA,NA,PARTICIPANT,NA,1,21,AC,NA,NA,NA,NA,NA,7,NA,NA,NA,2024-05-23_07h22.40.627,NA,NA,7,664ee0ab45326734a5ede843,6,TRUE,74
ýýýWin32,NA,NA,NA,624.2261999999993,NA,NA,NA,Please set both sliders to 1.,beliefs_scatterplots_pretest,NA,2024-05-23_07h22.57.174,NA,2.658999999999992,0.5258999999985008,NA,29,NA,28,NA,red,60.24096385542697,001,NA,beliefs_scatterplots_pretest,664ed6ba62fd8adeb1015beb,NA,NA,NA,NA,2024.1.1,NA,NA,22,0,NA,NA,NA,NA,space,627.4258000000008,NA,1.7043000000006714,NA,NA,NA,NA,NA,NA,PARTICIPANT,NA,1,22,AC,NA,NA,NA,NA,NA,1,NA,NA,NA,2024-05-23_07h22.40.627,NA,NA,1,664ee0ab45326734a5ede843,6,TRUE,74
ýýýWin32,7,NA,NA,627.4261000000015,NA,NA,4,"As the quality of healthcare improves, life expectancy tends to increase.",beliefs_scatterplots_pretest,NA,2024-05-23_07h22.57.174,NA,18.109399999998573,0.15609999999776392,NA,5,NA,4,NA,black,60.24096385542697,001,2,beliefs_scatterplots_pretest,664ed6ba62fd8adeb1015beb,NA,NA,NA,NA,2024.1.1,NA,NA,23,0,NA,NA,NA,NA,space,645.7086999999992,NA,17.07350000000008,NA,NA,0,NA,NA,NA,PARTICIPANT,NA,1,23,high_corr,NA,NA,NA,NA,NA,7,NA,NA,NA,2024-05-23_07h22.40.627,NA,NA,7,664ee0ab45326734a5ede843,6,TRUE,74
ýýýWin32,NA,NA,NA,645.7091999999992,NA,NA,NA,Please set both sliders to 7.,beliefs_scatterplots_pretest,NA,2024-05-23_07h22.57.174,NA,2.4273000000007414,0.20400000000006455,NA,28,NA,27,NA,red,60.24096385542697,001,NA,beliefs_scatterplots_pretest,664ed6ba62fd8adeb1015beb,NA,NA,NA,NA,2024.1.1,NA,NA,24,0,NA,NA,NA,NA,space,648.3588999999985,NA,1.404199999999264,NA,NA,NA,NA,NA,NA,PARTICIPANT,NA,1,24,AC,NA,NA,NA,NA,NA,7,NA,NA,NA,2024-05-23_07h22.40.627,NA,NA,7,664ee0ab45326734a5ede843,6,TRUE,74
ýýýWin32,2.5,NA,NA,648.3596000000015,NA,NA,4,Higher consumption of nuts and seeds is associated with reduced risk of cardiovascular diseases.,beliefs_scatterplots_pretest,NA,2024-05-23_07h22.57.174,NA,8.0299,0.1627000000029284,NA,24,NA,23,NA,black,60.24096385542697,001,2,beliefs_scatterplots_pretest,664ed6ba62fd8adeb1015beb,NA,NA,NA,NA,2024.1.1,NA,NA,25,0,NA,NA,NA,NA,space,656.5583999999985,NA,7.166699999999196,NA,NA,1,NA,NA,NA,PARTICIPANT,NA,1,25,low_corr,NA,NA,NA,NA,NA,6,NA,NA,NA,2024-05-23_07h22.40.627,NA,NA,5,664ee0ab45326734a5ede843,6,TRUE,74
ýýýWin32,3,NA,NA,656.5591000000015,NA,NA,4.5,"As cultural preservation efforts increase, community identity and cohesion tend to strengthen.",beliefs_scatterplots_pretest,NA,2024-05-23_07h22.57.174,NA,5.708999999999946,0.10300000000006548,NA,25,NA,24,NA,black,60.24096385542697,001,1,beliefs_scatterplots_pretest,664ed6ba62fd8adeb1015beb,NA,NA,NA,NA,2024.1.1,NA,NA,26,0,NA,NA,NA,NA,space,662.3923000000008,NA,4.472699999999236,NA,NA,0,NA,NA,NA,PARTICIPANT,NA,1,26,low_corr,NA,NA,NA,NA,NA,4,NA,NA,NA,2024-05-23_07h22.40.627,NA,NA,5,664ee0ab45326734a5ede843,6,TRUE,74
ýýýWin32,3,NA,NA,662.3926000000015,NA,NA,4.5,"As participation in community arts programs increases, local cultural engagement tends to rise.",beliefs_scatterplots_pretest,NA,2024-05-23_07h22.57.174,NA,7.719400000002224,0.25319999999919673,NA,21,NA,20,NA,black,60.24096385542697,001,1,beliefs_scatterplots_pretest,664ed6ba62fd8adeb1015beb,NA,NA,NA,NA,2024.1.1,NA,NA,27,0,NA,NA,NA,NA,space,670.3915000000001,NA,6.620499999999993,NA,NA,2,NA,NA,NA,PARTICIPANT,NA,1,27,low_corr,NA,NA,NA,NA,NA,4,NA,NA,NA,2024-05-23_07h22.40.627,NA,NA,4,664ee0ab45326734a5ede843,6,TRUE,74
ýýýWin32,6,NA,NA,670.3918999999985,NA,NA,3,Higher sugar consumption is associated with an increased risk of dental cavities.,beliefs_scatterplots_pretest,NA,2024-05-23_07h22.57.174,NA,7.670499999999947,0.15960000000143282,NA,10,NA,9,NA,black,60.24096385542697,001,0,beliefs_scatterplots_pretest,664ed6ba62fd8adeb1015beb,NA,NA,NA,NA,2024.1.1,NA,NA,28,0,NA,NA,NA,NA,space,678.2418999999985,NA,6.625499999999988,NA,NA,2,NA,NA,NA,PARTICIPANT,NA,1,28,high_corr,NA,NA,NA,NA,NA,5,NA,NA,NA,2024-05-23_07h22.40.627,NA,NA,3,664ee0ab45326734a5ede843,6,TRUE,74
ýýýWin32,5.5,NA,NA,678.2421999999992,NA,NA,4,Higher levels of civic engagement are linked to a stronger sense of community.,beliefs_scatterplots_pretest,NA,2024-05-23_07h22.57.174,NA,4.6223,0.20020000000295113,NA,9,NA,8,NA,black,60.24096385542697,001,0,beliefs_scatterplots_pretest,664ed6ba62fd8adeb1015beb,NA,NA,NA,NA,2024.1.1,NA,NA,29,0,NA,NA,NA,NA,space,683.0916000000014,NA,3.683799999997063,NA,NA,1,NA,NA,NA,PARTICIPANT,NA,1,29,high_corr,NA,NA,NA,NA,NA,4,NA,NA,NA,2024-05-23_07h22.40.627,NA,NA,4,664ee0ab45326734a5ede843,6,TRUE,74
ýýýWin32,6,NA,NA,683.0918999999985,NA,NA,3,Higher attendance at preventive health screenings is linked to earlier detection of diseases.,beliefs_scatterplots_pretest,NA,2024-05-23_07h22.57.174,NA,7.033200000003035,1.0204000000021551,NA,11,NA,10,NA,black,60.24096385542697,001,2,beliefs_scatterplots_pretest,664ed6ba62fd8adeb1015beb,NA,NA,NA,NA,2024.1.1,NA,NA,30,0,NA,NA,NA,NA,space,691.175,NA,6.438699999999244,NA,NA,0,NA,NA,NA,PARTICIPANT,NA,1,30,high_corr,NA,NA,NA,NA,NA,4,NA,NA,NA,2024-05-23_07h22.40.627,NA,NA,3,664ee0ab45326734a5ede843,6,TRUE,74
ýýýWin32,NA,NA,NA,NA,NA,NA,NA,NA,beliefs_scatterplots_pretest,NA,2024-05-23_07h22.57.174,NA,NA,NA,NA,NA,NA,NA,NA,NA,60.24096385542697,001,NA,beliefs_scatterplots_pretest,664ed6ba62fd8adeb1015beb,NA,NA,NA,NA,2024.1.1,NA,NA,NA,NA,NA,NA,NA,700.2413999999985,NA,NA,NA,NA,NA,691.1756000000015,NA,NA,NA,NA,PARTICIPANT,NA,NA,NA,NA,NA,NA,NA,NA,NA,NA,NA,NA,NA,2024-05-23_07h22.40.627,NA,NA,NA,664ee0ab45326734a5ede843,6,TRUE,74
ýýýWin32,NA,NA,NA,NA,NA,NA,NA,NA,beliefs_scatterplots_pretest,702.8913000000008,2024-05-23_07h22.57.174,NA,NA,NA,NA,NA,NA,NA,NA,NA,60.24096385542697,001,NA,beliefs_scatterplots_pretest,664ed6ba62fd8adeb1015beb,NA,NA,NA,NA,2024.1.1,NA,NA,NA,NA,NA,NA,NA,NA,NA,NA,NA,NA,NA,NA,NA,NA,NA,NA,PARTICIPANT,NA,NA,NA,NA,NA,NA,NA,NA,700.2415,NA,NA,NA,NA,2024-05-23_07h22.40.627,NA,NA,NA,664ee0ab45326734a5ede843,6,TRUE,74
ýýýMacIntel,NA,NA,NA,NA,1.8265,NA,NA,NA,beliefs_scatterplots_pretest,NA,2024-05-23_08h16.01.045,NA,NA,NA,NA,NA,NA,NA,NA,NA,59.88023952095874,001,NA,beliefs_scatterplots_pretest,664ed6ba62fd8adeb1015beb,NA,NA,NA,NA,2024.1.1,NA,NA,NA,NA,NA,NA,NA,NA,NA,NA,NA,NA,NA,NA,NA,NA,NA,NA,PARTICIPANT,NA,NA,NA,NA,2.0000004768405e-4,NA,NA,NA,NA,NA,NA,NA,NA,2024-05-23_08h15.58.856,NA,NA,NA,664eecfb48502b2b93ede089,6,TRUE,78
ýýýMacIntel,NA,NA,NA,NA,NA,NA,NA,NA,beliefs_scatterplots_pretest,NA,2024-05-23_08h16.01.045,46.58610000002385,NA,NA,NA,NA,NA,NA,NA,NA,59.88023952095874,001,NA,beliefs_scatterplots_pretest,664ed6ba62fd8adeb1015beb,NA,NA,NA,NA,2024.1.1,NA,NA,NA,NA,NA,NA,NA,NA,NA,NA,NA,NA,NA,NA,NA,46.58589999997616,NA,NA,PARTICIPANT,NA,NA,NA,NA,NA,45.46539999997616,NA,NA,NA,NA,NA,NA,NA,2024-05-23_08h15.58.856,51.502899999976165,NA,NA,664eecfb48502b2b93ede089,6,TRUE,78
ýýýMacIntel,NA,NA,NA,NA,NA,NA,NA,NA,beliefs_scatterplots_pretest,NA,2024-05-23_08h16.01.045,NA,NA,NA,51.50300000000001,NA,NA,NA,NA,NA,59.88023952095874,001,NA,beliefs_scatterplots_pretest,664ed6ba62fd8adeb1015beb,NA,NA,NA,NA,2024.1.1,59,NA,NA,NA,NA,Male,NA,NA,NA,NA,NA,NA,59.59279999995232,NA,NA,NA,NA,NA,PARTICIPANT,NA,NA,NA,NA,NA,NA,NA,NA,NA,NA,NA,NA,NA,2024-05-23_08h15.58.856,NA,NA,NA,664eecfb48502b2b93ede089,6,TRUE,78
ýýýMacIntel,NA,NA,95.64220000004768,NA,NA,109.15489999997617,NA,NA,beliefs_scatterplots_pretest,NA,2024-05-23_08h16.01.045,NA,NA,NA,NA,NA,NA,NA,95.64270000004768,NA,59.88023952095874,001,NA,beliefs_scatterplots_pretest,664ed6ba62fd8adeb1015beb,NA,NA,NA,NA,2024.1.1,NA,NA,NA,NA,NA,NA,NA,NA,NA,NA,NA,NA,NA,NA,NA,NA,NA,NA,PARTICIPANT,NA,NA,NA,NA,NA,NA,NA,88.01070000004768,NA,NA,NA,NA,NA,2024-05-23_08h15.58.856,NA,NA,NA,664eecfb48502b2b93ede089,6,TRUE,78
ýýýMacIntel,NA,NA,NA,NA,NA,NA,NA,NA,beliefs_scatterplots_pretest,NA,2024-05-23_08h16.01.045,NA,NA,NA,NA,NA,NA,NA,NA,NA,59.88023952095874,001,NA,beliefs_scatterplots_pretest,664ed6ba62fd8adeb1015beb,NA,NA,NA,NA,2024.1.1,NA,NA,NA,NA,NA,NA,1.9639999999999984,NA,NA,NA,NA,NA,NA,NA,NA,NA,NA,NA,PARTICIPANT,118.38020000004768,NA,NA,NA,NA,NA,7.232699999928471,NA,NA,NA,space,109.155,NA,2024-05-23_08h15.58.856,NA,4,NA,664eecfb48502b2b93ede089,6,TRUE,78
ýýýMacIntel,NA,NA,NA,NA,NA,NA,NA,NA,beliefs_scatterplots_pretest,NA,2024-05-23_08h16.01.045,NA,NA,NA,NA,NA,118.38029999995231,NA,NA,NA,59.88023952095874,001,NA,beliefs_scatterplots_pretest,664ed6ba62fd8adeb1015beb,NA,NA,NA,NA,2024.1.1,NA,NA,NA,NA,NA,NA,NA,NA,NA,NA,131.41750000000002,NA,NA,NA,NA,NA,NA,NA,PARTICIPANT,NA,NA,NA,NA,NA,NA,NA,NA,NA,NA,NA,NA,NA,2024-05-23_08h15.58.856,NA,NA,NA,664eecfb48502b2b93ede089,6,TRUE,78
ýýýMacIntel,NA,1,NA,NA,NA,NA,NA,NA,beliefs_scatterplots_pretest,NA,2024-05-23_08h16.01.045,NA,NA,NA,NA,NA,NA,NA,NA,NA,59.88023952095874,001,NA,beliefs_scatterplots_pretest,664ed6ba62fd8adeb1015beb,131.41760000002387,space,7.454600000023845,0.8714000000953774,2024.1.1,NA,NA,NA,NA,NA,NA,NA,NA,NA,NA,NA,NA,NA,NA,NA,NA,NA,NA,PARTICIPANT,NA,NA,NA,NA,NA,NA,NA,NA,NA,NA,NA,NA,139.77200000000002,2024-05-23_08h15.58.856,NA,NA,NA,664eecfb48502b2b93ede089,6,TRUE,78
ýýýMacIntel,NA,NA,NA,NA,NA,NA,NA,NA,beliefs_scatterplots_pretest,NA,2024-05-23_08h16.01.045,NA,NA,NA,NA,NA,NA,NA,NA,NA,59.88023952095874,001,NA,beliefs_scatterplots_pretest,664ed6ba62fd8adeb1015beb,NA,NA,NA,NA,2024.1.1,NA,NA,NA,NA,NA,NA,NA,NA,NA,NA,NA,NA,NA,NA,NA,NA,143.64870000004768,139.77210000002384,PARTICIPANT,NA,NA,NA,NA,NA,NA,NA,NA,NA,NA,NA,NA,NA,2024-05-23_08h15.58.856,NA,NA,NA,664eecfb48502b2b93ede089,6,TRUE,78
ýýýMacIntel,NA,NA,NA,143.65960000002386,NA,NA,NA,Please set both sliders to 1.,beliefs_scatterplots_pretest,NA,2024-05-23_08h16.01.045,NA,7.8185,2.6880999999046367,NA,31,NA,30,NA,red,59.88023952095874,001,NA,beliefs_scatterplots_pretest,664ed6ba62fd8adeb1015beb,NA,NA,NA,NA,2024.1.1,NA,NA,0,0,NA,NA,NA,NA,space,154.18660000002384,NA,5.402799999952293,NA,NA,NA,NA,NA,NA,PARTICIPANT,NA,1,0,AC,NA,NA,NA,NA,NA,1,NA,NA,NA,2024-05-23_08h15.58.856,NA,NA,1,664eecfb48502b2b93ede089,6,TRUE,78
ýýýMacIntel,6.5,NA,NA,154.187,NA,NA,4,"As caffeine consumption increases, so does the average heart rate.",beliefs_scatterplots_pretest,NA,2024-05-23_08h16.01.045,NA,10.669799999952318,4.199299999952331,NA,2,NA,1,NA,black,59.88023952095874,001,0,beliefs_scatterplots_pretest,664ed6ba62fd8adeb1015beb,NA,NA,NA,NA,2024.1.1,NA,NA,1,0,NA,NA,NA,NA,space,169.07729999995232,NA,8.879200000047689,NA,NA,1,NA,NA,NA,PARTICIPANT,NA,1,1,high_corr,NA,NA,NA,NA,NA,6,NA,NA,NA,2024-05-23_08h15.58.856,NA,NA,3,664eecfb48502b2b93ede089,6,TRUE,78
ýýýMacIntel,NA,NA,NA,169.08529999995233,NA,NA,NA,Please set both sliders to 1.,beliefs_scatterplots_pretest,NA,2024-05-23_08h16.01.045,NA,4.3473999999761475,1.1283999999761534,NA,29,NA,28,NA,red,59.88023952095874,001,NA,beliefs_scatterplots_pretest,664ed6ba62fd8adeb1015beb,NA,NA,NA,NA,2024.1.1,NA,NA,2,0,NA,NA,NA,NA,space,174.58189999997617,NA,3.3093000000715165,NA,NA,NA,NA,NA,NA,PARTICIPANT,NA,1,2,AC,NA,NA,NA,NA,NA,1,NA,NA,NA,2024-05-23_08h15.58.856,NA,NA,1,664eecfb48502b2b93ede089,6,TRUE,78
ýýýMacIntel,2.5,NA,NA,174.58210000002384,NA,NA,4.5,Higher consumption of spicy foods is associated with a lower risk of certain types of cancer.,beliefs_scatterplots_pretest,NA,2024-05-23_08h16.01.045,NA,14.02589999997616,4.003399999976153,NA,22,NA,21,NA,black,59.88023952095874,001,1,beliefs_scatterplots_pretest,664ed6ba62fd8adeb1015beb,NA,NA,NA,NA,2024.1.1,NA,NA,3,0,NA,NA,NA,NA,space,190.59060000002384,NA,6.8688,NA,NA,1,NA,NA,NA,PARTICIPANT,NA,1,3,low_corr,NA,NA,NA,NA,NA,5,NA,NA,NA,2024-05-23_08h15.58.856,NA,NA,5,664eecfb48502b2b93ede089,6,TRUE,78
ýýýMacIntel,5.5,NA,NA,190.5907999999523,NA,NA,3,"As soil quality degrades, agricultural productivity tends to decrease.",beliefs_scatterplots_pretest,NA,2024-05-23_08h16.01.045,NA,9.648399999976164,0.8483999999761807,NA,8,NA,7,NA,black,59.88023952095874,001,2,beliefs_scatterplots_pretest,664ed6ba62fd8adeb1015beb,NA,NA,NA,NA,2024.1.1,NA,NA,4,0,NA,NA,NA,NA,space,201.11510000002383,NA,7.249700000047682,NA,NA,1,NA,NA,NA,PARTICIPANT,NA,1,4,high_corr,NA,NA,NA,NA,NA,6,NA,NA,NA,2024-05-23_08h15.58.856,NA,NA,5,664eecfb48502b2b93ede089,6,TRUE,78
ýýýMacIntel,3.5,NA,NA,201.11529999995233,NA,NA,5,Higher frequency of family meals is linked to better eating habits in children.,beliefs_scatterplots_pretest,NA,2024-05-23_08h16.01.045,NA,7.583200000047668,0.5528000000715281,NA,20,NA,19,NA,black,59.88023952095874,001,2,beliefs_scatterplots_pretest,664ed6ba62fd8adeb1015beb,NA,NA,NA,NA,2024.1.1,NA,NA,5,0,NA,NA,NA,NA,space,209.27310000002385,NA,6.3843000000715335,NA,NA,1,NA,NA,NA,PARTICIPANT,NA,1,5,low_corr,NA,NA,NA,NA,NA,5,NA,NA,NA,2024-05-23_08h15.58.856,NA,NA,5,664eecfb48502b2b93ede089,6,TRUE,78
ýýýMacIntel,5.5,NA,NA,209.27329999995231,NA,NA,4,Higher levels of civic engagement are linked to a stronger sense of community.,beliefs_scatterplots_pretest,NA,2024-05-23_08h16.01.045,NA,15.514799999952317,0.7049999999999841,NA,9,NA,8,NA,black,59.88023952095874,001,0,beliefs_scatterplots_pretest,664ed6ba62fd8adeb1015beb,NA,NA,NA,NA,2024.1.1,NA,NA,6,0,NA,NA,NA,NA,space,225.51429999995233,NA,8.078299999952321,NA,NA,1,NA,NA,NA,PARTICIPANT,NA,1,6,high_corr,NA,NA,NA,NA,NA,4,NA,NA,NA,2024-05-23_08h15.58.856,NA,NA,4,664eecfb48502b2b93ede089,6,TRUE,78
ýýýMacIntel,3.5,NA,NA,225.51450000000003,NA,NA,3,"As the amount of sleep decreases, the risk of obesity increases.",beliefs_scatterplots_pretest,NA,2024-05-23_08h16.01.045,NA,11.287600000023843,0.5032000000476842,NA,16,NA,15,NA,black,59.88023952095874,001,0,beliefs_scatterplots_pretest,664ed6ba62fd8adeb1015beb,NA,NA,NA,NA,2024.1.1,NA,NA,7,0,NA,NA,NA,NA,space,237.3312000000477,NA,9.824000000000012,NA,NA,1,NA,NA,NA,PARTICIPANT,NA,1,7,low_corr,NA,NA,NA,NA,NA,4,NA,NA,NA,2024-05-23_08h15.58.856,NA,NA,3,664eecfb48502b2b93ede089,6,TRUE,78
ýýýMacIntel,6,NA,NA,237.33139999997616,NA,NA,3,Higher attendance at preventive health screenings is linked to earlier detection of diseases.,beliefs_scatterplots_pretest,NA,2024-05-23_08h16.01.045,NA,5.960199999928477,1.0676000000238446,NA,11,NA,10,NA,black,59.88023952095874,001,2,beliefs_scatterplots_pretest,664ed6ba62fd8adeb1015beb,NA,NA,NA,NA,2024.1.1,NA,NA,8,0,NA,NA,NA,NA,space,244.3815,NA,4.985600000023851,NA,NA,0,NA,NA,NA,PARTICIPANT,NA,1,8,high_corr,NA,NA,NA,NA,NA,7,NA,NA,NA,2024-05-23_08h15.58.856,NA,NA,6,664eecfb48502b2b93ede089,6,TRUE,78
ýýýMacIntel,1,NA,NA,244.38160000002387,NA,NA,3,Higher exposure to air conditioning is associated with increased respiratory issues.,beliefs_scatterplots_pretest,NA,2024-05-23_08h16.01.045,NA,8.339899999976154,2.793400000095346,NA,19,NA,18,NA,black,59.88023952095874,001,2,beliefs_scatterplots_pretest,664ed6ba62fd8adeb1015beb,NA,NA,NA,NA,2024.1.1,NA,NA,9,0,NA,NA,NA,NA,space,255.5545,NA,5.067799999952314,NA,NA,0,NA,NA,NA,PARTICIPANT,NA,1,9,low_corr,NA,NA,NA,NA,NA,2,NA,NA,NA,2024-05-23_08h15.58.856,NA,NA,2,664eecfb48502b2b93ede089,6,TRUE,78
ýýýMacIntel,6.5,NA,NA,255.5547999999523,NA,NA,5,"As pedestrian-friendly infrastructure improves, urban walkability tends to increase.",beliefs_scatterplots_pretest,NA,2024-05-23_08h16.01.045,NA,11.761300000071516,0.6763000000714783,NA,13,NA,12,NA,black,59.88023952095874,001,2,beliefs_scatterplots_pretest,664ed6ba62fd8adeb1015beb,NA,NA,NA,NA,2024.1.1,NA,NA,10,0,NA,NA,NA,NA,space,268.0192999999523,NA,8.9568999999761445,NA,NA,1,NA,NA,NA,PARTICIPANT,NA,1,10,high_corr,NA,NA,NA,NA,NA,7,NA,NA,NA,2024-05-23_08h15.58.856,NA,NA,6,664eecfb48502b2b93ede089,6,TRUE,78
ýýýMacIntel,3.5,NA,NA,268.01960000002384,NA,NA,4.5,Greater intake of omega-3 fatty acids is associated with lower inflammation levels.,beliefs_scatterplots_pretest,NA,2024-05-23_08h16.01.045,NA,6.615000000000009,0.8204000000953897,NA,17,NA,16,NA,black,59.88023952095874,001,1,beliefs_scatterplots_pretest,664ed6ba62fd8adeb1015beb,NA,NA,NA,NA,2024.1.1,NA,NA,11,0,NA,NA,NA,NA,space,275.4773999999761,NA,5.6474999999999795,NA,NA,1,NA,NA,NA,PARTICIPANT,NA,1,11,low_corr,NA,NA,NA,NA,NA,5,NA,NA,NA,2024-05-23_08h15.58.856,NA,NA,3,664eecfb48502b2b93ede089,6,TRUE,78
ýýýMacIntel,6,NA,NA,275.47770000004766,NA,NA,4.5,Greater regularity in sleep patterns is associated with improved mental health.,beliefs_scatterplots_pretest,NA,2024-05-23_08h16.01.045,NA,6.395199999928423,0.20489999997613495,NA,14,NA,13,NA,black,59.88023952095874,001,1,beliefs_scatterplots_pretest,664ed6ba62fd8adeb1015beb,NA,NA,NA,NA,2024.1.1,NA,NA,12,0,NA,NA,NA,NA,space,282.10410000002383,NA,5.3982999999523145,NA,NA,2,NA,NA,NA,PARTICIPANT,NA,1,12,high_corr,NA,NA,NA,NA,NA,5,NA,NA,NA,2024-05-23_08h15.58.856,NA,NA,3,664eecfb48502b2b93ede089,6,TRUE,78
ýýýMacIntel,7,NA,NA,282.1042999999523,NA,NA,4,"As the quality of healthcare improves, life expectancy tends to increase.",beliefs_scatterplots_pretest,NA,2024-05-23_08h16.01.045,NA,6.2096000000238405,0.36120000004768826,NA,5,NA,4,NA,black,59.88023952095874,001,2,beliefs_scatterplots_pretest,664ed6ba62fd8adeb1015beb,NA,NA,NA,NA,2024.1.1,NA,NA,13,0,NA,NA,NA,NA,space,288.6977999999523,NA,5.253400000095382,NA,NA,0,NA,NA,NA,PARTICIPANT,NA,1,13,high_corr,NA,NA,NA,NA,NA,7,NA,NA,NA,2024-05-23_08h15.58.856,NA,NA,5,664eecfb48502b2b93ede089,6,TRUE,78
ýýýMacIntel,NA,NA,NA,288.698,NA,NA,NA,Please set both sliders to 1.,beliefs_scatterplots_pretest,NA,2024-05-23_08h16.01.045,NA,5.697100000023795,0.7007000000476751,NA,30,NA,29,NA,red,59.88023952095874,001,NA,beliefs_scatterplots_pretest,664ed6ba62fd8adeb1015beb,NA,NA,NA,NA,2024.1.1,NA,NA,14,0,NA,NA,NA,NA,space,295.12220000004766,NA,3.5324999999999704,NA,NA,NA,NA,NA,NA,PARTICIPANT,NA,1,14,AC,NA,NA,NA,NA,NA,1,NA,NA,NA,2024-05-23_08h15.58.856,NA,NA,1,664eecfb48502b2b93ede089,6,TRUE,78
ýýýMacIntel,3,NA,NA,295.12239999997615,NA,NA,4.5,"As participation in community arts programs increases, local cultural engagement tends to rise.",beliefs_scatterplots_pretest,NA,2024-05-23_08h16.01.045,NA,9.9194,0.7480000000000473,NA,21,NA,20,NA,black,59.88023952095874,001,1,beliefs_scatterplots_pretest,664ed6ba62fd8adeb1015beb,NA,NA,NA,NA,2024.1.1,NA,NA,15,0,NA,NA,NA,NA,space,305.8116000000238,NA,4.993899999976122,NA,NA,2,NA,NA,NA,PARTICIPANT,NA,1,15,low_corr,NA,NA,NA,NA,NA,6,NA,NA,NA,2024-05-23_08h15.58.856,NA,NA,5,664eecfb48502b2b93ede089,6,TRUE,78
ýýýMacIntel,6,NA,NA,305.8117999999523,NA,NA,3,Higher sugar consumption is associated with an increased risk of dental cavities.,beliefs_scatterplots_pretest,NA,2024-05-23_08h16.01.045,NA,6.797200000047667,0.5495000000000232,NA,10,NA,9,NA,black,59.88023952095874,001,0,beliefs_scatterplots_pretest,664ed6ba62fd8adeb1015beb,NA,NA,NA,NA,2024.1.1,NA,NA,16,0,NA,NA,NA,NA,space,313.1852999999523,NA,5.7057000000476705,NA,NA,2,NA,NA,NA,PARTICIPANT,NA,1,16,high_corr,NA,NA,NA,NA,NA,7,NA,NA,NA,2024-05-23_08h15.58.856,NA,NA,3,664eecfb48502b2b93ede089,6,TRUE,78
ýýýMacIntel,2.5,NA,NA,313.18560000002384,NA,NA,4,Higher consumption of nuts and seeds is associated with reduced risk of cardiovascular diseases.,beliefs_scatterplots_pretest,NA,2024-05-23_08h16.01.045,NA,5.433799999952328,0.3322000000476919,NA,24,NA,23,NA,black,59.88023952095874,001,2,beliefs_scatterplots_pretest,664ed6ba62fd8adeb1015beb,NA,NA,NA,NA,2024.1.1,NA,NA,17,0,NA,NA,NA,NA,space,320.4475,NA,6.903399999976159,NA,NA,1,NA,NA,NA,PARTICIPANT,NA,1,17,low_corr,NA,NA,NA,NA,NA,6,NA,NA,NA,2024-05-23_08h15.58.856,NA,NA,3,664eecfb48502b2b93ede089,6,TRUE,78
ýýýMacIntel,5.5,NA,NA,320.4477000000477,NA,NA,5,Higher levels of empathy are linked to stronger interpersonal relationships.,beliefs_scatterplots_pretest,NA,2024-05-23_08h16.01.045,NA,7.137699999928486,0.51869999992845806,NA,7,NA,6,NA,black,59.88023952095874,001,2,beliefs_scatterplots_pretest,664ed6ba62fd8adeb1015beb,NA,NA,NA,NA,2024.1.1,NA,NA,18,0,NA,NA,NA,NA,space,328.12110000002383,NA,5.166199999928494,NA,NA,1,NA,NA,NA,PARTICIPANT,NA,1,18,high_corr,NA,NA,NA,NA,NA,6,NA,NA,NA,2024-05-23_08h15.58.856,NA,NA,5,664eecfb48502b2b93ede089,6,TRUE,78
ýýýMacIntel,3,NA,NA,328.1213999999761,NA,NA,4,Greater adherence to a Mediterranean diet is linked to a lower risk of neurodegenerative diseases.,beliefs_scatterplots_pretest,NA,2024-05-23_08h16.01.045,NA,6.2581000000238305,2.2538000000715215,NA,23,NA,22,NA,black,59.88023952095874,001,0,beliefs_scatterplots_pretest,664ed6ba62fd8adeb1015beb,NA,NA,NA,NA,2024.1.1,NA,NA,19,0,NA,NA,NA,NA,space,337.6482999999523,NA,8.125700000047686,NA,NA,2,NA,NA,NA,PARTICIPANT,NA,1,19,low_corr,NA,NA,NA,NA,NA,5,NA,NA,NA,2024-05-23_08h15.58.856,NA,NA,3,664eecfb48502b2b93ede089,6,TRUE,78
ýýýMacIntel,3,NA,NA,337.64870000004765,NA,NA,4.5,"As cultural preservation efforts increase, community identity and cohesion tend to strengthen.",beliefs_scatterplots_pretest,NA,2024-05-23_08h16.01.045,NA,11.236000000000049,2.3381000000238146,NA,25,NA,24,NA,black,59.88023952095874,001,1,beliefs_scatterplots_pretest,664ed6ba62fd8adeb1015beb,NA,NA,NA,NA,2024.1.1,NA,NA,20,0,NA,NA,NA,NA,space,352.8195,NA,12.794499999999973,NA,NA,0,NA,NA,NA,PARTICIPANT,NA,1,20,low_corr,NA,NA,NA,NA,NA,2,NA,NA,NA,2024-05-23_08h15.58.856,NA,NA,5,664eecfb48502b2b93ede089,6,TRUE,78
ýýýMacIntel,NA,NA,NA,352.81970000004765,NA,NA,NA,Please set both sliders to 7.,beliefs_scatterplots_pretest,NA,2024-05-23_08h16.01.045,NA,5.846099999904595,0.8371999999284299,NA,26,NA,25,NA,red,59.88023952095874,001,NA,beliefs_scatterplots_pretest,664ed6ba62fd8adeb1015beb,NA,NA,NA,NA,2024.1.1,NA,NA,21,0,NA,NA,NA,NA,space,359.5251000000238,NA,4.663000000000011,NA,NA,NA,NA,NA,NA,PARTICIPANT,NA,1,21,AC,NA,NA,NA,NA,NA,7,NA,NA,NA,2024-05-23_08h15.58.856,NA,NA,7,664eecfb48502b2b93ede089,6,TRUE,78
ýýýMacIntel,NA,NA,NA,359.5252999999523,NA,NA,NA,Please set both sliders to 7.,beliefs_scatterplots_pretest,NA,2024-05-23_08h16.01.045,NA,5.777100000023836,0.7169999999999845,NA,27,NA,26,NA,red,59.88023952095874,001,NA,beliefs_scatterplots_pretest,664ed6ba62fd8adeb1015beb,NA,NA,NA,NA,2024.1.1,NA,NA,22,0,NA,NA,NA,NA,space,366.0442999999523,NA,4.468999999999994,NA,NA,NA,NA,NA,NA,PARTICIPANT,NA,1,22,AC,NA,NA,NA,NA,NA,7,NA,NA,NA,2024-05-23_08h15.58.856,NA,NA,7,664eecfb48502b2b93ede089,6,TRUE,78
ýýýMacIntel,6.5,NA,NA,366.0445,NA,NA,3,Greater use of helmets is associated with a lower incidence of head injuries in cyclists.,beliefs_scatterplots_pretest,NA,2024-05-23_08h16.01.045,NA,6.8593,0.47620000004769736,NA,4,NA,3,NA,black,59.88023952095874,001,2,beliefs_scatterplots_pretest,664ed6ba62fd8adeb1015beb,NA,NA,NA,NA,2024.1.1,NA,NA,23,0,NA,NA,NA,NA,space,374.5615,NA,8.0186,NA,NA,1,NA,NA,NA,PARTICIPANT,NA,1,23,high_corr,NA,NA,NA,NA,NA,6,NA,NA,NA,2024-05-23_08h15.58.856,NA,NA,5,664eecfb48502b2b93ede089,6,TRUE,78
ýýýMacIntel,NA,NA,NA,374.5616000000238,NA,NA,NA,Please set both sliders to 7.,beliefs_scatterplots_pretest,NA,2024-05-23_08h16.01.045,NA,2.8322999999522835,0.5074,NA,28,NA,27,NA,red,59.88023952095874,001,NA,beliefs_scatterplots_pretest,664ed6ba62fd8adeb1015beb,NA,NA,NA,NA,2024.1.1,NA,NA,24,0,NA,NA,NA,NA,space,377.9271000000238,NA,1.8558999999761456,NA,NA,NA,NA,NA,NA,PARTICIPANT,NA,1,24,AC,NA,NA,NA,NA,NA,7,NA,NA,NA,2024-05-23_08h15.58.856,NA,NA,7,664eecfb48502b2b93ede089,6,TRUE,78
ýýýMacIntel,3.5,NA,NA,377.9272999999523,NA,NA,4,Greater water consumption is linked to improved kidney function.,beliefs_scatterplots_pretest,NA,2024-05-23_08h16.01.045,NA,5.404399999976135,5.589200000047697,NA,15,NA,14,NA,black,59.88023952095874,001,0,beliefs_scatterplots_pretest,664ed6ba62fd8adeb1015beb,NA,NA,NA,NA,2024.1.1,NA,NA,25,0,NA,NA,NA,NA,space,390.9232999999523,NA,9.412799999952313,NA,NA,1,NA,NA,NA,PARTICIPANT,NA,1,25,low_corr,NA,NA,NA,NA,NA,7,NA,NA,NA,2024-05-23_08h15.58.856,NA,NA,4,664eecfb48502b2b93ede089,6,TRUE,78
ýýýMacIntel,6.5,NA,NA,390.9313999999761,NA,NA,4.5,Increased exposure to sunlight is correlated with higher vitamin D levels.,beliefs_scatterplots_pretest,NA,2024-05-23_08h16.01.045,NA,9.186799999952314,0.49769999992844305,NA,1,NA,0,NA,black,59.88023952095874,001,1,beliefs_scatterplots_pretest,664ed6ba62fd8adeb1015beb,NA,NA,NA,NA,2024.1.1,NA,NA,26,0,NA,NA,NA,NA,space,400.6381000000238,NA,7.0065,NA,NA,1,NA,NA,NA,PARTICIPANT,NA,1,26,high_corr,NA,NA,NA,NA,NA,7,NA,NA,NA,2024-05-23_08h15.58.856,NA,NA,4,664eecfb48502b2b93ede089,6,TRUE,78
ýýýMacIntel,3,NA,NA,400.6383999999761,NA,NA,5,Greater exposure to music education is linked to enhanced cognitive development in children.,beliefs_scatterplots_pretest,NA,2024-05-23_08h16.01.045,NA,11.02439999997614,4.224999999999966,NA,18,NA,17,NA,black,59.88023952095874,001,2,beliefs_scatterplots_pretest,664ed6ba62fd8adeb1015beb,NA,NA,NA,NA,2024.1.1,NA,NA,27,0,NA,NA,NA,NA,space,412.2972999999523,NA,5.380600000023833,NA,NA,0,NA,NA,NA,PARTICIPANT,NA,1,27,low_corr,NA,NA,NA,NA,NA,3,NA,NA,NA,2024-05-23_08h15.58.856,NA,NA,4,664eecfb48502b2b93ede089,6,TRUE,78
ýýýMacIntel,6.5,NA,NA,412.2976000000238,NA,NA,4.5,Increased use of energy-efficient appliances is associated with lower electricity bills.,beliefs_scatterplots_pretest,NA,2024-05-23_08h16.01.045,NA,10.524600000023838,0.5009999999999764,NA,12,NA,11,NA,black,59.88023952095874,001,1,beliefs_scatterplots_pretest,664ed6ba62fd8adeb1015beb,NA,NA,NA,NA,2024.1.1,NA,NA,28,0,NA,NA,NA,NA,space,423.3455,NA,7.382499999999993,NA,NA,1,NA,NA,NA,PARTICIPANT,NA,1,28,high_corr,NA,NA,NA,NA,NA,6,NA,NA,NA,2024-05-23_08h15.58.856,NA,NA,5,664eecfb48502b2b93ede089,6,TRUE,78
ýýýMacIntel,6.5,NA,NA,423.34570000004766,NA,NA,4.5,"As access to clean water improves, the incidence of waterborne diseases decreases.",beliefs_scatterplots_pretest,NA,2024-05-23_08h16.01.045,NA,6.657900000095367,1.5476999999284544,NA,6,NA,5,NA,black,59.88023952095874,001,1,beliefs_scatterplots_pretest,664ed6ba62fd8adeb1015beb,NA,NA,NA,NA,2024.1.1,NA,NA,29,0,NA,NA,NA,NA,space,431.58010000002383,NA,4.976299999952289,NA,NA,1,NA,NA,NA,PARTICIPANT,NA,1,29,high_corr,NA,NA,NA,NA,NA,6,NA,NA,NA,2024-05-23_08h15.58.856,NA,NA,5,664eecfb48502b2b93ede089,6,TRUE,78
ýýýMacIntel,5.5,NA,NA,431.5803999999761,NA,NA,4,Greater frequency of exercise is linked to a lower risk of depression.,beliefs_scatterplots_pretest,NA,2024-05-23_08h16.01.045,NA,4.856399999976134,0.27199999999999136,NA,3,NA,2,NA,black,59.88023952095874,001,2,beliefs_scatterplots_pretest,664ed6ba62fd8adeb1015beb,NA,NA,NA,NA,2024.1.1,NA,NA,30,0,NA,NA,NA,NA,space,436.7347999999523,NA,3.527499999999975,NA,NA,1,NA,NA,NA,PARTICIPANT,NA,1,30,high_corr,NA,NA,NA,NA,NA,7,NA,NA,NA,2024-05-23_08h15.58.856,NA,NA,5,664eecfb48502b2b93ede089,6,TRUE,78
ýýýMacIntel,NA,NA,NA,NA,NA,NA,NA,NA,beliefs_scatterplots_pretest,NA,2024-05-23_08h16.01.045,NA,NA,NA,NA,NA,NA,NA,NA,NA,59.88023952095874,001,NA,beliefs_scatterplots_pretest,664ed6ba62fd8adeb1015beb,NA,NA,NA,NA,2024.1.1,NA,NA,NA,NA,NA,NA,NA,447.47610000002385,NA,NA,NA,NA,NA,436.7352999999523,NA,NA,NA,NA,PARTICIPANT,NA,NA,NA,NA,NA,NA,NA,NA,NA,NA,NA,NA,NA,2024-05-23_08h15.58.856,NA,NA,NA,664eecfb48502b2b93ede089,6,TRUE,78
ýýýMacIntel,NA,NA,NA,NA,NA,NA,NA,NA,beliefs_scatterplots_pretest,450.6395,2024-05-23_08h16.01.045,NA,NA,NA,NA,NA,NA,NA,NA,NA,59.88023952095874,001,NA,beliefs_scatterplots_pretest,664ed6ba62fd8adeb1015beb,NA,NA,NA,NA,2024.1.1,NA,NA,NA,NA,NA,NA,NA,NA,NA,NA,NA,NA,NA,NA,NA,NA,NA,NA,PARTICIPANT,NA,NA,NA,NA,NA,NA,NA,NA,447.4762000000477,NA,NA,NA,NA,2024-05-23_08h15.58.856,NA,NA,NA,664eecfb48502b2b93ede089,6,TRUE,78
ýýýWin32,NA,NA,NA,NA,2.3012000000476824,NA,NA,NA,beliefs_scatterplots_pretest,NA,2024-05-23_09h02.45.200,NA,NA,NA,NA,NA,NA,NA,NA,NA,60.97560975609891,001,NA,beliefs_scatterplots_pretest,664ed6ba62fd8adeb1015beb,NA,NA,NA,NA,2024.1.1,NA,NA,NA,NA,NA,NA,NA,NA,NA,NA,NA,NA,NA,NA,NA,NA,NA,NA,PARTICIPANT,NA,NA,NA,NA,4.9999999999883e-4,NA,NA,NA,NA,NA,NA,NA,NA,2024-05-23_09h02.31.395,NA,NA,NA,664ef80fb22cc24988051383,6,TRUE,42
ýýýWin32,NA,NA,NA,NA,NA,NA,NA,NA,beliefs_scatterplots_pretest,NA,2024-05-23_09h02.45.200,23.35470000004768,NA,NA,NA,NA,NA,NA,NA,NA,60.97560975609891,001,NA,beliefs_scatterplots_pretest,664ed6ba62fd8adeb1015beb,NA,NA,NA,NA,2024.1.1,NA,NA,NA,NA,NA,NA,NA,NA,NA,NA,NA,NA,NA,NA,NA,23.353999999999996,NA,NA,PARTICIPANT,NA,NA,NA,NA,NA,21.996299999952317,NA,NA,NA,NA,NA,NA,NA,2024-05-23_09h02.31.395,26.569,NA,NA,664ef80fb22cc24988051383,6,TRUE,42
ýýýWin32,NA,NA,NA,NA,NA,NA,NA,NA,beliefs_scatterplots_pretest,NA,2024-05-23_09h02.45.200,NA,NA,NA,26.569200000047683,NA,NA,NA,NA,NA,60.97560975609891,001,NA,beliefs_scatterplots_pretest,664ed6ba62fd8adeb1015beb,NA,NA,NA,NA,2024.1.1,37,NA,NA,NA,NA,Male,NA,NA,NA,NA,NA,NA,31.80490000009536,NA,NA,NA,NA,NA,PARTICIPANT,NA,NA,NA,NA,NA,NA,NA,NA,NA,NA,NA,NA,NA,2024-05-23_09h02.31.395,NA,NA,NA,664ef80fb22cc24988051383,6,TRUE,42
ýýýWin32,NA,NA,54.29520000004767,NA,NA,63.62740000009536,NA,NA,beliefs_scatterplots_pretest,NA,2024-05-23_09h02.45.200,NA,NA,NA,NA,NA,NA,NA,54.297,NA,60.97560975609891,001,NA,beliefs_scatterplots_pretest,664ed6ba62fd8adeb1015beb,NA,NA,NA,NA,2024.1.1,NA,NA,NA,NA,NA,NA,NA,NA,NA,NA,NA,NA,NA,NA,NA,NA,NA,NA,PARTICIPANT,NA,NA,NA,NA,NA,NA,NA,50.730200000047674,NA,NA,NA,NA,NA,2024-05-23_09h02.31.395,NA,NA,NA,664ef80fb22cc24988051383,6,TRUE,42
ýýýWin32,NA,NA,NA,NA,NA,NA,NA,NA,beliefs_scatterplots_pretest,NA,2024-05-23_09h02.45.200,NA,NA,NA,NA,NA,NA,NA,NA,NA,60.97560975609891,001,NA,beliefs_scatterplots_pretest,664ed6ba62fd8adeb1015beb,NA,NA,NA,NA,2024.1.1,NA,NA,NA,NA,NA,NA,1.303699999809254,NA,NA,NA,NA,NA,NA,NA,NA,NA,NA,NA,PARTICIPANT,71.925,NA,NA,NA,NA,NA,7.447499999999991,NA,NA,NA,space,63.62760000014305,NA,2024-05-23_09h02.31.395,NA,4,NA,664ef80fb22cc24988051383,6,TRUE,42
ýýýWin32,NA,NA,NA,NA,NA,NA,NA,NA,beliefs_scatterplots_pretest,NA,2024-05-23_09h02.45.200,NA,NA,NA,NA,NA,71.92529999995232,NA,NA,NA,60.97560975609891,001,NA,beliefs_scatterplots_pretest,664ed6ba62fd8adeb1015beb,NA,NA,NA,NA,2024.1.1,NA,NA,NA,NA,NA,NA,NA,NA,NA,NA,80.12179999995232,NA,NA,NA,NA,NA,NA,NA,PARTICIPANT,NA,NA,NA,NA,NA,NA,NA,NA,NA,NA,NA,NA,NA,2024-05-23_09h02.31.395,NA,NA,NA,664ef80fb22cc24988051383,6,TRUE,42
ýýýWin32,NA,5,NA,NA,NA,NA,NA,NA,beliefs_scatterplots_pretest,NA,2024-05-23_09h02.45.200,NA,NA,NA,NA,NA,NA,NA,NA,NA,60.97560975609891,001,NA,beliefs_scatterplots_pretest,664ed6ba62fd8adeb1015beb,80.12190000009537,space,5.0434999999999945,0.5206000001430482,2024.1.1,NA,NA,NA,NA,NA,NA,NA,NA,NA,NA,NA,NA,NA,NA,NA,NA,NA,NA,PARTICIPANT,NA,NA,NA,NA,NA,NA,NA,NA,NA,NA,NA,NA,85.70679999995231,2024-05-23_09h02.31.395,NA,NA,NA,664ef80fb22cc24988051383,6,TRUE,42
ýýýWin32,NA,NA,NA,NA,NA,NA,NA,NA,beliefs_scatterplots_pretest,NA,2024-05-23_09h02.45.200,NA,NA,NA,NA,NA,NA,NA,NA,NA,60.97560975609891,001,NA,beliefs_scatterplots_pretest,664ed6ba62fd8adeb1015beb,NA,NA,NA,NA,2024.1.1,NA,NA,NA,NA,NA,NA,NA,NA,NA,NA,NA,NA,NA,NA,NA,NA,88.47529999995231,85.707,PARTICIPANT,NA,NA,NA,NA,NA,NA,NA,NA,NA,NA,NA,NA,NA,2024-05-23_09h02.31.395,NA,NA,NA,664ef80fb22cc24988051383,6,TRUE,42
ýýýWin32,6.5,NA,NA,88.47890000009536,NA,NA,4,"As caffeine consumption increases, so does the average heart rate.",beliefs_scatterplots_pretest,NA,2024-05-23_09h02.45.200,NA,12.28110000014304,0.8050999999046411,NA,2,NA,1,NA,black,60.97560975609891,001,0,beliefs_scatterplots_pretest,664ed6ba62fd8adeb1015beb,NA,NA,NA,NA,2024.1.1,NA,NA,0,0,NA,NA,NA,NA,space,101.5855,NA,8.036700000047674,NA,NA,1,NA,NA,NA,PARTICIPANT,NA,1,0,high_corr,NA,NA,NA,NA,NA,6,NA,NA,NA,2024-05-23_09h02.31.395,NA,NA,3,664ef80fb22cc24988051383,6,TRUE,42
ýýýWin32,5.5,NA,NA,101.58710000014304,NA,NA,5,Higher levels of empathy are linked to stronger interpersonal relationships.,beliefs_scatterplots_pretest,NA,2024-05-23_09h02.45.200,NA,5.860500000000002,0.7190000000000083,NA,7,NA,6,NA,black,60.97560975609891,001,2,beliefs_scatterplots_pretest,664ed6ba62fd8adeb1015beb,NA,NA,NA,NA,2024.1.1,NA,NA,1,0,NA,NA,NA,NA,space,108.19479999995232,NA,3.1995000000000005,NA,NA,1,NA,NA,NA,PARTICIPANT,NA,1,1,high_corr,NA,NA,NA,NA,NA,6,NA,NA,NA,2024-05-23_09h02.31.395,NA,NA,5,664ef80fb22cc24988051383,6,TRUE,42
ýýýWin32,6.5,NA,NA,108.19579999995231,NA,NA,4.5,Increased exposure to sunlight is correlated with higher vitamin D levels.,beliefs_scatterplots_pretest,NA,2024-05-23_09h02.45.200,NA,7.181000000000012,0.9953000001907242,NA,1,NA,0,NA,black,60.97560975609891,001,1,beliefs_scatterplots_pretest,664ed6ba62fd8adeb1015beb,NA,NA,NA,NA,2024.1.1,NA,NA,2,0,NA,NA,NA,NA,space,116.38910000014305,NA,4.350200000047678,NA,NA,1,NA,NA,NA,PARTICIPANT,NA,1,2,high_corr,NA,NA,NA,NA,NA,7,NA,NA,NA,2024-05-23_09h02.31.395,NA,NA,4,664ef80fb22cc24988051383,6,TRUE,42
ýýýWin32,6.5,NA,NA,116.39010000014304,NA,NA,4.5,"As access to clean water improves, the incidence of waterborne diseases decreases.",beliefs_scatterplots_pretest,NA,2024-05-23_09h02.45.200,NA,8.6008,0.9671,NA,6,NA,5,NA,black,60.97560975609891,001,1,beliefs_scatterplots_pretest,664ed6ba62fd8adeb1015beb,NA,NA,NA,NA,2024.1.1,NA,NA,3,0,NA,NA,NA,NA,space,125.98490000009538,NA,5.318300000190732,NA,NA,1,NA,NA,NA,PARTICIPANT,NA,1,3,high_corr,NA,NA,NA,NA,NA,6,NA,NA,NA,2024-05-23_09h02.31.395,NA,NA,6,664ef80fb22cc24988051383,6,TRUE,42
ýýýWin32,3.5,NA,NA,125.9862000000477,NA,NA,5,Higher frequency of family meals is linked to better eating habits in children.,beliefs_scatterplots_pretest,NA,2024-05-23_09h02.45.200,NA,7.247400000095354,0.2288999998569352,NA,20,NA,19,NA,black,60.97560975609891,001,2,beliefs_scatterplots_pretest,664ed6ba62fd8adeb1015beb,NA,NA,NA,NA,2024.1.1,NA,NA,4,0,NA,NA,NA,NA,space,133.4869000000954,NA,4.597000000000008,NA,NA,1,NA,NA,NA,PARTICIPANT,NA,1,4,low_corr,NA,NA,NA,NA,NA,6,NA,NA,NA,2024-05-23_09h02.31.395,NA,NA,5,664ef80fb22cc24988051383,6,TRUE,42
ýýýWin32,NA,NA,NA,133.48790000009538,NA,NA,NA,Please set both sliders to 7.,beliefs_scatterplots_pretest,NA,2024-05-23_09h02.45.200,NA,3.4012000000477087,0.8557999999523247,NA,26,NA,25,NA,red,60.97560975609891,001,NA,beliefs_scatterplots_pretest,664ed6ba62fd8adeb1015beb,NA,NA,NA,NA,2024.1.1,NA,NA,5,0,NA,NA,NA,NA,space,137.76650000000004,NA,2.4167999999523033,NA,NA,NA,NA,NA,NA,PARTICIPANT,NA,1,5,AC,NA,NA,NA,NA,NA,7,NA,NA,NA,2024-05-23_09h02.31.395,NA,NA,7,664ef80fb22cc24988051383,6,TRUE,42
ýýýWin32,6.5,NA,NA,137.76779999995233,NA,NA,3,Greater use of helmets is associated with a lower incidence of head injuries in cyclists.,beliefs_scatterplots_pretest,NA,2024-05-23_09h02.45.200,NA,10.085799999952314,0.39930000019072054,NA,4,NA,3,NA,black,60.97560975609891,001,2,beliefs_scatterplots_pretest,664ed6ba62fd8adeb1015beb,NA,NA,NA,NA,2024.1.1,NA,NA,6,0,NA,NA,NA,NA,space,148.27140000009538,NA,6.978700000047667,NA,NA,1,NA,NA,NA,PARTICIPANT,NA,1,6,high_corr,NA,NA,NA,NA,NA,7,NA,NA,NA,2024-05-23_09h02.31.395,NA,NA,4,664ef80fb22cc24988051383,6,TRUE,42
ýýýWin32,5.5,NA,NA,148.27229999995234,NA,NA,4,Greater frequency of exercise is linked to a lower risk of depression.,beliefs_scatterplots_pretest,NA,2024-05-23_09h02.45.200,NA,5.418399999856945,0.22270000004769488,NA,3,NA,2,NA,black,60.97560975609891,001,2,beliefs_scatterplots_pretest,664ed6ba62fd8adeb1015beb,NA,NA,NA,NA,2024.1.1,NA,NA,7,0,NA,NA,NA,NA,space,153.93660000014307,NA,3.5868000001907205,NA,NA,1,NA,NA,NA,PARTICIPANT,NA,1,7,high_corr,NA,NA,NA,NA,NA,7,NA,NA,NA,2024-05-23_09h02.31.395,NA,NA,6,664ef80fb22cc24988051383,6,TRUE,42
ýýýWin32,NA,NA,NA,153.93679999995234,NA,NA,NA,Please set both sliders to 7.,beliefs_scatterplots_pretest,NA,2024-05-23_09h02.45.200,NA,2.473200000047683,0.24670000004769577,NA,27,NA,26,NA,red,60.97560975609891,001,NA,beliefs_scatterplots_pretest,664ed6ba62fd8adeb1015beb,NA,NA,NA,NA,2024.1.1,NA,NA,8,0,NA,NA,NA,NA,space,156.67290000009538,NA,1.7303999998569566,NA,NA,NA,NA,NA,NA,PARTICIPANT,NA,1,8,AC,NA,NA,NA,NA,NA,7,NA,NA,NA,2024-05-23_09h02.31.395,NA,NA,7,664ef80fb22cc24988051383,6,TRUE,42
ýýýWin32,3,NA,NA,156.67370000004772,NA,NA,4.5,"As cultural preservation efforts increase, community identity and cohesion tend to strengthen.",beliefs_scatterplots_pretest,NA,2024-05-23_09h02.45.200,NA,86.50239999985692,1.5,NA,25,NA,24,NA,black,60.97560975609891,001,1,beliefs_scatterplots_pretest,664ed6ba62fd8adeb1015beb,NA,NA,NA,NA,2024.1.1,NA,NA,9,0,NA,NA,NA,NA,space,244.69890000009536,NA,83.74059999990462,NA,NA,0,NA,NA,NA,PARTICIPANT,NA,1,9,low_corr,NA,NA,NA,NA,NA,4,NA,NA,NA,2024-05-23_09h02.31.395,NA,NA,3,664ef80fb22cc24988051383,6,TRUE,42
ýýýWin32,5.5,NA,NA,244.6997000000477,NA,NA,3,"As soil quality degrades, agricultural productivity tends to decrease.",beliefs_scatterplots_pretest,NA,2024-05-23_09h02.45.200,NA,9.882700000047691,0.5660999999046226,NA,8,NA,7,NA,black,60.97560975609891,001,2,beliefs_scatterplots_pretest,664ed6ba62fd8adeb1015beb,NA,NA,NA,NA,2024.1.1,NA,NA,10,0,NA,NA,NA,NA,space,255.16610000014305,NA,8.731700000047681,NA,NA,1,NA,NA,NA,PARTICIPANT,NA,1,10,high_corr,NA,NA,NA,NA,NA,5,NA,NA,NA,2024-05-23_09h02.31.395,NA,NA,3,664ef80fb22cc24988051383,6,TRUE,42
ýýýWin32,3.5,NA,NA,255.16740000009537,NA,NA,4,Greater water consumption is linked to improved kidney function.,beliefs_scatterplots_pretest,NA,2024-05-23_09h02.45.200,NA,5.041299999952287,1.1968000001907058,NA,15,NA,14,NA,black,60.97560975609891,001,0,beliefs_scatterplots_pretest,664ed6ba62fd8adeb1015beb,NA,NA,NA,NA,2024.1.1,NA,NA,11,0,NA,NA,NA,NA,space,260.3715,NA,2.9960999999046294,NA,NA,1,NA,NA,NA,PARTICIPANT,NA,1,11,low_corr,NA,NA,NA,NA,NA,5,NA,NA,NA,2024-05-23_09h02.31.395,NA,NA,4,664ef80fb22cc24988051383,6,TRUE,42
ýýýWin32,NA,NA,NA,260.3725,NA,NA,NA,Please set both sliders to 1.,beliefs_scatterplots_pretest,NA,2024-05-23_09h02.45.200,NA,4.007000000000005,0.18950000000000955,NA,31,NA,30,NA,red,60.97560975609891,001,NA,beliefs_scatterplots_pretest,664ed6ba62fd8adeb1015beb,NA,NA,NA,NA,2024.1.1,NA,NA,12,0,NA,NA,NA,NA,space,264.58279999995233,NA,3.0762999999523117,NA,NA,NA,NA,NA,NA,PARTICIPANT,NA,1,12,AC,NA,NA,NA,NA,NA,1,NA,NA,NA,2024-05-23_09h02.31.395,NA,NA,1,664ef80fb22cc24988051383,6,TRUE,42
ýýýWin32,NA,NA,NA,264.5832000000477,NA,NA,NA,Please set both sliders to 1.,beliefs_scatterplots_pretest,NA,2024-05-23_09h02.45.200,NA,3.1331,0.6392999999522999,NA,30,NA,29,NA,red,60.97560975609891,001,NA,beliefs_scatterplots_pretest,664ed6ba62fd8adeb1015beb,NA,NA,NA,NA,2024.1.1,NA,NA,13,0,NA,NA,NA,NA,space,268.38210000014305,NA,1.5965999999046403,NA,NA,NA,NA,NA,NA,PARTICIPANT,NA,1,13,AC,NA,NA,NA,NA,NA,1,NA,NA,NA,2024-05-23_09h02.31.395,NA,NA,1,664ef80fb22cc24988051383,6,TRUE,42
ýýýWin32,3,NA,NA,268.3831000001431,NA,NA,4,Greater adherence to a Mediterranean diet is linked to a lower risk of neurodegenerative diseases.,beliefs_scatterplots_pretest,NA,2024-05-23_09h02.45.200,NA,9.501700000047665,1.3071999998093131,NA,23,NA,22,NA,black,60.97560975609891,001,0,beliefs_scatterplots_pretest,664ed6ba62fd8adeb1015beb,NA,NA,NA,NA,2024.1.1,NA,NA,14,0,NA,NA,NA,NA,space,279.2167000000477,NA,8.607300000190719,NA,NA,2,NA,NA,NA,PARTICIPANT,NA,1,14,low_corr,NA,NA,NA,NA,NA,5,NA,NA,NA,2024-05-23_09h02.31.395,NA,NA,3,664ef80fb22cc24988051383,6,TRUE,42
ýýýWin32,3,NA,NA,279.21729999995233,NA,NA,5,Greater exposure to music education is linked to enhanced cognitive development in children.,beliefs_scatterplots_pretest,NA,2024-05-23_09h02.45.200,NA,7.134999999999991,0.2345999999046171,NA,18,NA,17,NA,black,60.97560975609891,001,2,beliefs_scatterplots_pretest,664ed6ba62fd8adeb1015beb,NA,NA,NA,NA,2024.1.1,NA,NA,15,0,NA,NA,NA,NA,space,286.6017000000477,NA,6.144200000047647,NA,NA,0,NA,NA,NA,PARTICIPANT,NA,1,15,low_corr,NA,NA,NA,NA,NA,5,NA,NA,NA,2024-05-23_09h02.31.395,NA,NA,5,664ef80fb22cc24988051383,6,TRUE,42
ýýýWin32,6.5,NA,NA,286.6021000001431,NA,NA,5,"As pedestrian-friendly infrastructure improves, urban walkability tends to increase.",beliefs_scatterplots_pretest,NA,2024-05-23_09h02.45.200,NA,6.289500000000032,1.7144000000953383,NA,13,NA,12,NA,black,60.97560975609891,001,2,beliefs_scatterplots_pretest,664ed6ba62fd8adeb1015beb,NA,NA,NA,NA,2024.1.1,NA,NA,16,0,NA,NA,NA,NA,space,293.6136000001431,NA,3.542100000143023,NA,NA,1,NA,NA,NA,PARTICIPANT,NA,1,16,high_corr,NA,NA,NA,NA,NA,4,NA,NA,NA,2024-05-23_09h02.31.395,NA,NA,2,664ef80fb22cc24988051383,6,TRUE,42
ýýýWin32,6,NA,NA,293.6144000000954,NA,NA,3,Higher attendance at preventive health screenings is linked to earlier detection of diseases.,beliefs_scatterplots_pretest,NA,2024-05-23_09h02.45.200,NA,7.593500000000006,0.3410000000000082,NA,11,NA,10,NA,black,60.97560975609891,001,2,beliefs_scatterplots_pretest,664ed6ba62fd8adeb1015beb,NA,NA,NA,NA,2024.1.1,NA,NA,17,0,NA,NA,NA,NA,space,301.57300000000004,NA,4.610300000190705,NA,NA,0,NA,NA,NA,PARTICIPANT,NA,1,17,high_corr,NA,NA,NA,NA,NA,7,NA,NA,NA,2024-05-23_09h02.31.395,NA,NA,5,664ef80fb22cc24988051383,6,TRUE,42
ýýýWin32,2.5,NA,NA,301.57320000004773,NA,NA,4,Higher consumption of nuts and seeds is associated with reduced risk of cardiovascular diseases.,beliefs_scatterplots_pretest,NA,2024-05-23_09h02.45.200,NA,6.629500000000007,0.1932999999523304,NA,24,NA,23,NA,black,60.97560975609891,001,2,beliefs_scatterplots_pretest,664ed6ba62fd8adeb1015beb,NA,NA,NA,NA,2024.1.1,NA,NA,18,0,NA,NA,NA,NA,space,308.4127000000477,NA,3.855600000143056,NA,NA,1,NA,NA,NA,PARTICIPANT,NA,1,18,low_corr,NA,NA,NA,NA,NA,5,NA,NA,NA,2024-05-23_09h02.31.395,NA,NA,4,664ef80fb22cc24988051383,6,TRUE,42
ýýýWin32,5.5,NA,NA,308.41310000014306,NA,NA,4,Higher levels of civic engagement are linked to a stronger sense of community.,beliefs_scatterplots_pretest,NA,2024-05-23_09h02.45.200,NA,4.9769999999999754,2.5509999999999877,NA,9,NA,8,NA,black,60.97560975609891,001,0,beliefs_scatterplots_pretest,664ed6ba62fd8adeb1015beb,NA,NA,NA,NA,2024.1.1,NA,NA,19,0,NA,NA,NA,NA,space,315.9624000000954,NA,3.861499999999978,NA,NA,1,NA,NA,NA,PARTICIPANT,NA,1,19,high_corr,NA,NA,NA,NA,NA,2,NA,NA,NA,2024-05-23_09h02.31.395,NA,NA,3,664ef80fb22cc24988051383,6,TRUE,42
ýýýWin32,NA,NA,NA,315.9639000000954,NA,NA,NA,Please set both sliders to 1.,beliefs_scatterplots_pretest,NA,2024-05-23_09h02.45.200,NA,3.349099999904638,0.5099999999999909,NA,29,NA,28,NA,red,60.97560975609891,001,NA,beliefs_scatterplots_pretest,664ed6ba62fd8adeb1015beb,NA,NA,NA,NA,2024.1.1,NA,NA,20,0,NA,NA,NA,NA,space,319.8427999999523,NA,2.030099999904678,NA,NA,NA,NA,NA,NA,PARTICIPANT,NA,1,20,AC,NA,NA,NA,NA,NA,1,NA,NA,NA,2024-05-23_09h02.31.395,NA,NA,1,664ef80fb22cc24988051383,6,TRUE,42
ýýýWin32,7,NA,NA,319.84360000014306,NA,NA,4,"As the quality of healthcare improves, life expectancy tends to increase.",beliefs_scatterplots_pretest,NA,2024-05-23_09h02.45.200,NA,4.1897999999522995,0.33390000009541154,NA,5,NA,4,NA,black,60.97560975609891,001,2,beliefs_scatterplots_pretest,664ed6ba62fd8adeb1015beb,NA,NA,NA,NA,2024.1.1,NA,NA,21,0,NA,NA,NA,NA,space,324.38250000000005,NA,3.188599999904625,NA,NA,0,NA,NA,NA,PARTICIPANT,NA,1,21,high_corr,NA,NA,NA,NA,NA,7,NA,NA,NA,2024-05-23_09h02.31.395,NA,NA,4,664ef80fb22cc24988051383,6,TRUE,42
